* Measurement data measured by REW V5.20.13
* Source: D:\GitHub Projects\PublicGraphTool\data_fossy\Brownie Target.txt
* Format: Comma/Tab/Space delimited data
* Dated: Apr 7, 2023 1:20:15 PM
* REW Settings:
*  C-weighting compensation: Off
*  Target level: 75.0 dB
* Note: ; Measurement imported from D:\GitHub Projects\PublicGraphTool\data_fossy\Brownie Target.txt Format: Comma/Tab/Space delimited data 79921 values loaded, 20 Hz to 20,000 Hz 
* Measurement: Brownie Target
* Smoothing: 1/24 octave
* Frequency Step: 1/48 octave
* Start Frequency: 20.000 Hz
*
* Freq(Hz) SPL(dB)
20.000000 106.995
20.299999 106.993
20.600000 106.986
20.900000 106.978
21.200001 106.971
21.400000 106.966
21.799999 106.957
22.000000 106.952
22.400000 106.942
22.700001 106.935
23.000000 106.928
23.299999 106.921
23.600000 106.914
24.000000 106.904
24.299999 106.897
24.700001 106.887
25.000000 106.880
25.400000 106.870
25.799999 106.860
26.200001 106.850
26.500000 106.843
26.900000 106.833
27.200001 106.826
27.600000 106.817
28.000000 106.807
28.500000 106.795
29.000000 106.783
29.500000 106.771
30.000000 106.759
30.400000 106.749
30.700001 106.742
31.100000 106.732
31.500000 106.722
32.000000 106.710
32.500000 106.698
33.000000 106.686
33.500000 106.674
34.000000 106.661
34.500000 106.649
35.000000 106.637
35.500000 106.625
36.000000 106.612
36.500000 106.600
37.000000 106.588
37.500000 106.576
38.200001 106.558
38.700001 106.546
39.500000 106.526
40.000000 106.514
40.599998 106.499
41.200001 106.484
41.799999 106.469
42.500000 106.452
43.099998 106.437
43.700001 106.422
44.400002 106.404
45.000000 106.389
45.500000 106.377
46.200001 106.359
46.799999 106.344
47.500000 106.326
48.200001 106.308
48.700001 106.295
49.400002 106.278
50.000000 106.262
50.799999 106.242
51.500000 106.224
52.200001 106.206
53.000000 106.185
53.799999 106.164
54.500000 106.146
55.200001 106.127
56.000000 106.106
57.000000 106.080
58.000000 106.053
59.000000 106.027
60.000000 105.999
60.799999 105.977
61.500000 105.957
62.200001 105.937
63.000000 105.914
64.000000 105.885
65.000000 105.856
66.000000 105.827
67.000000 105.798
68.000000 105.769
69.000000 105.740
70.000000 105.712
71.000000 105.683
72.000000 105.654
73.000000 105.625
74.000000 105.596
75.000000 105.567
76.199997 105.532
77.500000 105.495
78.800003 105.457
80.000000 105.422
81.199997 105.388
82.500000 105.350
83.800003 105.312
85.000000 105.277
86.199997 105.243
87.500000 105.205
88.500000 105.176
90.000000 105.132
91.199997 105.098
92.500000 105.060
93.800003 105.022
95.000000 104.987
96.199997 104.953
97.500000 104.915
98.800003 104.877
100.000000 104.842
101.500000 104.799
103.000000 104.756
104.400002 104.715
106.000000 104.669
107.500000 104.625
109.000000 104.582
110.599998 104.535
112.000000 104.495
113.800003 104.443
115.000000 104.408
117.199997 104.344
118.000000 104.321
120.599998 104.246
122.000000 104.205
124.099998 104.145
125.000000 104.119
126.500000 104.076
128.000000 104.032
131.500000 103.931
132.000000 103.917
134.000000 103.859
136.000000 103.802
138.000000 103.744
140.000000 103.687
143.000000 103.601
145.000000 103.544
147.500000 103.472
150.000000 103.401
152.500000 103.329
155.000000 103.258
157.500000 103.187
160.000000 103.116
162.500000 103.045
165.000000 102.975
167.500000 102.904
170.000000 102.833
172.500000 102.763
175.000000 102.693
177.500000 102.623
180.000000 102.553
182.500000 102.483
185.000000 102.414
187.500000 102.345
190.000000 102.275
192.500000 102.206
195.000000 102.138
197.500000 102.070
200.000000 102.003
203.000000 101.926
206.000000 101.851
209.000000 101.779
212.000000 101.709
214.000000 101.664
218.000000 101.576
220.000000 101.533
224.000000 101.451
227.000000 101.392
230.000000 101.334
233.000000 101.279
236.000000 101.226
240.000000 101.157
243.000000 101.109
247.000000 101.046
250.000000 101.002
254.000000 100.946
258.000000 100.892
262.000000 100.842
265.000000 100.807
269.000000 100.762
272.000000 100.730
276.000000 100.690
280.000000 100.652
285.000000 100.609
290.000000 100.570
295.000000 100.533
300.000000 100.499
304.000000 100.472
307.000000 100.452
311.000000 100.426
315.000000 100.400
320.000000 100.368
325.000000 100.338
330.000000 100.308
335.000000 100.279
340.000000 100.251
345.000000 100.224
350.000000 100.199
355.000000 100.174
360.000000 100.150
365.000000 100.127
370.000000 100.106
375.000000 100.085
382.000000 100.059
387.000000 100.041
395.000000 100.016
400.000000 100.004
406.000000 99.993
412.000000 99.984
418.000000 99.979
425.000000 99.973
431.000000 99.971
437.000000 99.969
444.000000 99.969
450.000000 99.969
455.000000 99.971
462.000000 99.973
468.000000 99.977
475.000000 99.981
482.000000 99.986
487.000000 99.989
494.000000 99.994
500.000000 99.997
508.000000 100.000
515.000000 100.000
522.000000 100.000
530.000000 100.000
538.000000 100.000
545.000000 100.000
552.000000 100.000
560.000000 100.000
570.000000 100.000
580.000000 100.000
590.000000 100.000
600.000000 100.000
608.000000 100.000
615.000000 100.000
622.000000 100.000
630.000000 100.000
640.000000 100.000
650.000000 100.000
660.000000 100.000
670.000000 100.000
680.000000 100.000
690.000000 100.000
700.000000 100.000
710.000000 100.000
720.000000 100.000
730.000000 100.000
740.000000 100.000
750.000000 100.000
762.000000 100.000
775.000000 100.000
788.000000 99.998
800.000000 99.991
812.000000 99.975
825.000000 99.953
838.000000 99.931
850.000000 99.912
862.000000 99.895
875.000000 99.879
885.000000 99.870
900.000000 99.860
912.000000 99.857
925.000000 99.859
938.000000 99.867
950.000000 99.880
962.000000 99.899
975.000000 99.929
988.000000 99.971
1000.000000 100.025
1015.000000 100.116
1030.000000 100.222
1044.000000 100.326
1060.000000 100.447
1075.000000 100.563
1090.000000 100.679
1106.000000 100.805
1120.000000 100.917
1138.000000 101.062
1150.000000 101.159
1172.000000 101.339
1180.000000 101.405
1206.000000 101.620
1220.000000 101.736
1241.000000 101.911
1250.000000 101.986
1265.000000 102.112
1280.000000 102.237
1315.000000 102.529
1320.000000 102.571
1340.000000 102.736
1360.000000 102.901
1380.000000 103.065
1400.000000 103.226
1430.000000 103.466
1450.000000 103.622
1475.000000 103.814
1500.000000 104.000
1525.000000 104.178
1550.000000 104.353
1575.000000 104.527
1600.000000 104.700
1625.000000 104.873
1650.000000 105.044
1675.000000 105.215
1700.000000 105.385
1725.000000 105.554
1750.000000 105.722
1775.000000 105.890
1800.000000 106.056
1825.000000 106.221
1850.000000 106.385
1875.000000 106.547
1900.000000 106.709
1925.000000 106.869
1950.000000 107.029
1975.000000 107.186
2000.000000 107.343
2030.000000 107.529
2060.000000 107.712
2090.000000 107.894
2120.000000 108.073
2140.000000 108.191
2180.000000 108.425
2200.000000 108.540
2240.000000 108.767
2270.000000 108.934
2300.000000 109.098
2330.000000 109.260
2360.000000 109.418
2400.000000 109.626
2430.000000 109.777
2470.000000 109.975
2500.000000 110.120
2540.000000 110.308
2580.000000 110.489
2620.000000 110.665
2650.000000 110.793
2690.000000 110.958
2720.000000 111.077
2760.000000 111.230
2800.000000 111.376
2850.000000 111.549
2900.000000 111.709
2950.000000 111.852
3000.000000 111.954
3040.000000 111.991
3070.000000 111.999
3110.000000 111.995
3150.000000 111.981
3200.000000 111.955
3250.000000 111.917
3300.000000 111.870
3350.000000 111.813
3400.000000 111.746
3450.000000 111.672
3500.000000 111.589
3550.000000 111.498
3600.000000 111.400
3650.000000 111.295
3700.000000 111.184
3750.000000 111.066
3820.000000 110.893
3870.000000 110.764
3950.000000 110.547
4000.000000 110.407
4060.000000 110.235
4120.000000 110.059
4180.000000 109.880
4250.000000 109.668
4310.000000 109.485
4370.000000 109.302
4440.000000 109.096
4500.000000 108.939
4550.000000 108.832
4620.000000 108.708
4680.000000 108.611
4750.000000 108.502
4820.000000 108.396
4870.000000 108.322
4940.000000 108.220
5000.000000 108.135
5080.000000 108.025
5150.000000 107.931
5220.000000 107.840
5300.000000 107.739
5380.000000 107.642
5450.000000 107.559
5520.000000 107.480
5600.000000 107.391
5700.000000 107.286
5800.000000 107.186
5900.000000 107.092
6000.000000 107.005
6080.000000 106.942
6150.000000 106.889
6220.000000 106.837
6300.000000 106.780
6400.000000 106.708
6500.000000 106.638
6600.000000 106.568
6700.000000 106.500
6800.000000 106.432
6900.000000 106.365
7000.000000 106.299
7100.000000 106.233
7200.000000 106.168
7300.000000 106.104
7400.000000 106.039
7500.000000 105.975
7620.000000 105.899
7750.000000 105.816
7880.000000 105.733
8000.000000 105.657
8120.000000 105.580
8250.000000 105.497
8380.000000 105.413
8500.000000 105.335
8620.000000 105.256
8750.000000 105.169
8850.000000 105.100
9000.000000 104.990
9120.000000 104.891
9250.000000 104.776
9380.000000 104.657
9500.000000 104.543
9620.000000 104.428
9750.000000 104.301
9880.000000 104.171
10000.000000 104.050
10150.000000 103.897
10300.000000 103.742
10440.000000 103.596
10600.000000 103.427
10750.000000 103.269
10900.000000 103.113
11060.000000 102.954
11200.000000 102.823
11380.000000 102.659
11500.000000 102.551
11720.000000 102.353
11800.000000 102.281
12060.000000 102.048
12200.000000 101.922
12410.000000 101.734
12500.000000 101.653
12650.000000 101.519
12800.000000 101.385
13150.000000 101.072
13200.000000 101.027
13400.000000 100.849
13600.000000 100.670
13800.000000 100.492
14000.000000 100.314
14300.000000 100.047
14500.000000 99.869
14750.000000 99.646
15000.000000 99.424
15250.000000 99.202
15500.000000 98.981
15750.000000 98.759
16000.000000 98.538
16250.000000 98.316
16500.000000 98.095
16750.000000 97.874
17000.000000 97.653
17250.000000 97.432
17500.000000 97.211
17750.000000 96.990
18000.000000 96.770
18250.000000 96.549
18500.000000 96.329
18750.000000 96.108
19000.000000 95.888
19250.000000 95.668
19500.000000 95.454
19750.000000 95.270
20000.000000 95.169
