* Measurement data measured by REW V5.31.3
* Source: C:\Users\therollo9\Documents\SquigLink\data\Chaos Neutral Tilt Target.txt
* Format: Comma/Tab/Space delimited data
* Dated: Aug 18, 2024 1:46:43 AM
* REW Settings:
*  C-weighting compensation: Off
*  Target level: 0.0 dB
* Note: HS Q     Fc    2500 Hz  Gain   8.00 dB Q  0.420 PK       Fc    2800 Hz  Gain  -3.00 dB  Q  1.000	-1.5dB/octave
* Measurement: Chaos Neutral Tilt Target
* Smoothing: 1/24 octave
* Frequency Step: 1/48 octave
* Start Frequency: 20.300 Hz
*
* Freq(Hz), SPL(dB)
20.299999	12.843
20.6	12.828
20.9	12.814
21.200001	12.8
21.4	12.791
21.799999	12.772
22	12.764
22.4	12.745
22.700001	12.729
23	12.714
23.299999	12.697
23.6	12.681
24	12.658
24.299999	12.641
24.700001	12.617
25	12.599
25.4	12.575
25.799999	12.55
26.200001	12.527
26.5	12.508
26.9	12.484
27.200001	12.465
27.6	12.44
28	12.414
28.5	12.383
29	12.352
29.5	12.321
30	12.29
30.4	12.265
30.700001	12.247
31.1	12.222
31.5	12.196
32	12.166
32.5	12.135
33	12.105
33.5	12.076
34	12.047
34.5	12.017
35	11.988
35.5	11.961
36	11.933
36.5	11.905
37	11.878
37.5	11.851
38.200001	11.817
38.700001	11.79
39.5	11.751
40	11.727
40.599998	11.7
41.200001	11.673
41.799999	11.647
42.5	11.616
43.099998	11.592
43.700001	11.568
44.400002	11.54
45	11.517
45.5	11.499
46.200001	11.473
46.799999	11.453
47.5	11.428
48.200001	11.404
48.700001	11.388
49.400002	11.365
50	11.346
50.799999	11.321
51.5	11.3
52.200001	11.278
53	11.255
53.799999	11.232
54.5	11.212
55.200001	11.192
56	11.169
57	11.142
58	11.114
59	11.087
60	11.06
60.799999	11.038
61.5	11.021
62.200001	11.001
63	10.98
64	10.954
65	10.928
66	10.902
67	10.877
68	10.851
69	10.825
70	10.799
71	10.773
72	10.747
73	10.722
74	10.697
75	10.671
76.199997	10.641
77.5	10.608
78.800003	10.575
80	10.546
81.199997	10.517
82.5	10.484
83.800003	10.454
85	10.424
86.199997	10.395
87.5	10.364
88.5	10.341
90	10.305
91.199997	10.277
92.5	10.246
93.800003	10.216
95	10.188
96.199997	10.159
97.5	10.128
98.800003	10.098
100	10.069
101.5	10.033
103	9.998
104.400002	9.965
106	9.926
107.5	9.891
109	9.854
110.599998	9.816
112	9.783
113.800003	9.741
115	9.713
117.199997	9.66
118	9.642
120.599998	9.581
122	9.548
124.099998	9.499
125	9.479
126.5	9.445
128	9.412
131.5	9.335
132	9.323
134	9.28
136	9.238
138	9.197
140	9.156
143	9.097
145	9.058
147.5	9.01
150	8.964
152.5	8.919
155	8.874
157.5	8.832
160	8.791
162.5	8.75
165	8.709
167.5	8.67
170	8.632
172.5	8.595
175	8.558
177.5	8.522
180	8.488
182.5	8.454
185	8.42
187.5	8.389
190	8.357
192.5	8.326
195	8.296
197.5	8.268
200	8.239
203	8.205
206	8.175
209	8.144
212	8.115
214	8.096
218	8.059
220	8.041
224	8.008
227	7.985
230	7.962
233	7.94
236	7.92
240	7.893
243	7.875
247	7.85
250	7.834
254	7.812
258	7.79
262	7.769
265	7.754
269	7.734
272	7.72
276	7.702
280	7.682
285	7.66
290	7.64
295	7.619
300	7.599
304	7.584
307	7.573
311	7.558
315	7.543
320	7.526
325	7.509
330	7.493
335	7.478
340	7.462
345	7.449
350	7.434
355	7.422
360	7.408
365	7.396
370	7.381
375	7.37
382	7.352
387	7.339
395	7.319
400	7.305
406	7.288
412	7.273
418	7.255
425	7.235
431	7.218
437	7.2
444	7.179
450	7.163
455	7.148
462	7.129
468	7.111
475	7.092
482	7.072
487	7.059
494	7.039
500	7.024
508	7.002
515	6.984
522	6.965
530	6.945
538	6.926
545	6.908
552	6.893
560	6.874
570	6.854
580	6.835
590	6.817
600	6.8
608	6.786
615	6.775
622	6.763
630	6.75
640	6.734
650	6.717
660	6.7
670	6.683
680	6.664
690	6.647
700	6.628
710	6.61
720	6.592
730	6.576
740	6.558
750	6.545
762	6.528
775	6.513
788	6.502
800	6.493
812	6.486
825	6.483
838	6.483
850	6.485
862	6.49
875	6.494
885	6.502
900	6.512
912	6.521
925	6.534
938	6.55
950	6.566
962	6.584
975	6.608
988	6.636
1000	6.666
1015	6.707
1030	6.756
1044	6.806
1060	6.866
1075	6.925
1090	6.983
1106	7.044
1120	7.095
1138	7.158
1150	7.197
1172	7.264
1180	7.287
1206	7.36
1220	7.4
1241	7.46
1250	7.486
1265	7.532
1280	7.578
1315	7.692
1320	7.708
1340	7.775
1360	7.842
1380	7.912
1400	7.979
1430	8.081
1450	8.149
1475	8.233
1500	8.318
1525	8.403
1550	8.488
1575	8.575
1600	8.662
1625	8.749
1650	8.836
1675	8.925
1700	9.014
1725	9.106
1750	9.2
1775	9.297
1800	9.398
1825	9.502
1850	9.609
1875	9.721
1900	9.836
1925	9.956
1950	10.08
1975	10.21
2000	10.345
2030	10.512
2060	10.69
2090	10.874
2120	11.064
2140	11.193
2180	11.453
2200	11.58
2240	11.825
2270	11.996
2300	12.155
2330	12.3
2360	12.437
2400	12.607
2430	12.73
2470	12.886
2500	13.002
2540	13.154
2580	13.304
2620	13.451
2650	13.561
2690	13.704
2720	13.807
2760	13.939
2800	14.062
2850	14.201
2900	14.325
2950	14.43
3000	14.52
3040	14.579
3070	14.616
3110	14.659
3150	14.69
3200	14.716
3250	14.728
3300	14.724
3350	14.708
3400	14.68
3450	14.642
3500	14.597
3550	14.544
3600	14.486
3650	14.423
3700	14.356
3750	14.288
3820	14.189
3870	14.119
3950	14.01
4000	13.942
4060	13.862
4120	13.783
4180	13.701
4250	13.6
4310	13.507
4370	13.405
4440	13.279
4500	13.169
4550	13.077
4620	12.95
4680	12.845
4750	12.73
4820	12.622
4870	12.55
4940	12.457
5000	12.388
5080	12.312
5150	12.259
5220	12.224
5300	12.2
5380	12.188
5450	12.187
5520	12.191
5600	12.198
5700	12.213
5800	12.232
5900	12.256
6000	12.285
6080	12.314
6150	12.343
6220	12.377
6300	12.419
6400	12.482
6500	12.553
6600	12.631
6700	12.716
6800	12.805
6900	12.896
7000	12.985
7100	13.069
7200	13.145
7300	13.21
7400	13.259
7500	13.292
7620	13.303
7750	13.279
7880	13.215
8000	13.119
8120	12.984
8250	12.798
8380	12.572
8500	12.329
8620	12.062
8750	11.75
8850	11.507
9000	11.151
9120	10.891
9250	10.649
9380	10.461
9500	10.338
9620	10.263
9750	10.237
9880	10.265
10000	10.345
10150	10.512
10300	10.752
10440	11.016
10600	11.304
10750	11.491
10900	11.547
11060	11.451
11200	11.253
11380	10.883
11500	10.587
11720	9.987
11800	9.761
12060	9.048
12200	8.719
12410	8.335
12500	8.212
12650	8.055
12800	7.95
13150	7.82
13200	7.805
13400	7.756
13600	7.694
13800	7.603
14000	7.478
14300	7.228
14500	7.033
14750	6.78
15000	6.545
15250	6.36
15500	6.245
15750	6.207
16000	6.238
16250	6.319
16500	6.432
16750	6.555
17000	6.668
17250	6.755
17500	6.799
17750	6.782
18000	6.682
18250	6.481
18500	6.159
18750	5.708
19000	5.121
19250	4.39
19500	3.375
19750	1.418
20000	-0.554
