* Measurement data measured by REW V5.30.5
* Source: Trace Arithmetic result A * B
* Format: Trace Arithmetic result A * B
* Dated: Feb 9, 2024 10:29:26 AM
* REW Settings:
*  C-weighting compensation: Off
*  Target level: 75.0 dB
* Note: Trace Arithmetic A times B A = rollo df hrtf B = SLOPE COMP FULL
* Measurement: HRTF COMP KIERKE TARGET
* Smoothing: 1/48 octave
* Frequency Step: 96 ppo
* Start Frequency: 20.0 Hz
*
* Freq(Hz) SPL(dB)
19.999998 77.404
20.144926 77.397
20.290905 77.392
20.437941 77.387
20.586042 77.382
20.735218 77.377
20.885473 77.371
21.036818 77.362
21.189259 77.351
21.342804 77.336
21.497463 77.318
21.653242 77.298
21.810150 77.275
21.968195 77.252
22.127386 77.228
22.287731 77.205
22.449238 77.185
22.611914 77.168
22.775768 77.157
22.940811 77.150
23.107050 77.147
23.274492 77.145
23.443150 77.145
23.613028 77.145
23.784138 77.146
23.956488 77.146
24.130087 77.145
24.304943 77.143
24.481068 77.140
24.658468 77.137
24.837154 77.134
25.017134 77.131
25.198418 77.129
25.381016 77.128
25.564938 77.127
25.750191 77.127
25.936787 77.127
26.124735 77.125
26.314045 77.123
26.504728 77.120
26.696793 77.116
26.890249 77.110
27.085108 77.105
27.281378 77.099
27.479071 77.092
27.678196 77.085
27.878763 77.078
28.080784 77.071
28.284269 77.063
28.489229 77.057
28.695673 77.050
28.903614 77.043
29.113062 77.037
29.324028 77.031
29.536522 77.025
29.750555 77.018
29.966141 77.011
30.183289 77.002
30.402010 76.993
30.622316 76.982
30.844219 76.970
31.067730 76.957
31.292860 76.944
31.519621 76.933
31.748026 76.924
31.978085 76.916
32.209812 76.910
32.443218 76.905
32.678314 76.901
32.915115 76.899
33.153633 76.898
33.393879 76.896
33.635864 76.893
33.879604 76.888
34.125111 76.882
34.372395 76.877
34.621471 76.871
34.872353 76.865
35.125053 76.859
35.379585 76.854
35.635960 76.849
35.894192 76.845
36.154297 76.841
36.416286 76.836
36.680176 76.831
36.945976 76.826
37.213703 76.821
37.483368 76.815
37.754990 76.809
38.028580 76.802
38.304150 76.795
38.581718 76.788
38.861298 76.780
39.142902 76.773
39.426548 76.766
39.712250 76.759
40.000023 76.752
40.289879 76.745
40.581837 76.738
40.875908 76.732
41.172112 76.725
41.470463 76.718
41.770973 76.710
42.073662 76.702
42.378544 76.694
42.685635 76.686
42.994953 76.678
43.306511 76.671
43.620327 76.665
43.936417 76.661
44.254799 76.658
44.575489 76.656
44.898502 76.655
45.223854 76.656
45.551563 76.658
45.881649 76.661
46.214127 76.663
46.549015 76.664
46.886330 76.662
47.226086 76.660
47.568306 76.657
47.913006 76.652
48.260204 76.646
48.609917 76.638
48.962166 76.629
49.316967 76.619
49.674339 76.609
50.034302 76.600
50.396870 76.593
50.762066 76.585
51.129910 76.579
51.500420 76.575
51.873611 76.571
52.249508 76.568
52.628128 76.565
53.009495 76.561
53.393623 76.557
53.780537 76.553
54.170254 76.548
54.562794 76.542
54.958179 76.537
55.356430 76.532
55.757565 76.527
56.161606 76.524
56.568577 76.523
56.978497 76.522
57.391388 76.523
57.807270 76.525
58.226166 76.526
58.648098 76.527
59.073086 76.525
59.501152 76.522
59.932323 76.517
60.366619 76.511
60.804062 76.505
61.244675 76.499
61.688480 76.491
62.135502 76.484
62.585762 76.479
63.039284 76.475
63.496094 76.472
63.956211 76.469
64.419662 76.465
64.886475 76.462
65.356667 76.457
65.830269 76.452
66.307304 76.446
66.787796 76.439
67.271767 76.431
67.759247 76.421
68.250259 76.411
68.744827 76.402
69.242981 76.393
69.744743 76.385
70.250145 76.377
70.759209 76.369
71.271957 76.361
71.788422 76.354
72.308632 76.346
72.832611 76.339
73.360390 76.333
73.891991 76.326
74.427444 76.320
74.966774 76.315
75.510017 76.310
76.057198 76.305
76.608337 76.301
77.163475 76.297
77.722633 76.294
78.285843 76.290
78.853134 76.284
79.424538 76.278
80.000084 76.271
80.579796 76.262
81.163712 76.253
81.751854 76.242
82.344261 76.231
82.940964 76.221
83.541985 76.211
84.147362 76.201
84.757126 76.192
85.371307 76.183
85.989944 76.173
86.613060 76.163
87.240692 76.152
87.872871 76.140
88.509636 76.128
89.151016 76.116
89.797043 76.105
90.447746 76.094
91.103165 76.084
91.763336 76.075
92.428291 76.067
93.098068 76.062
93.772697 76.057
94.452209 76.053
95.136650 76.049
95.826050 76.043
96.520447 76.037
97.219872 76.030
97.924370 76.023
98.633972 76.015
99.348717 76.006
100.068642 75.997
100.793777 75.986
101.524170 75.975
102.259857 75.963
103.000877 75.952
103.747261 75.940
104.499054 75.927
105.256294 75.914
106.019028 75.901
106.787285 75.888
107.561111 75.875
108.340546 75.863
109.125626 75.850
109.916397 75.837
110.712898 75.825
111.515167 75.813
112.323250 75.801
113.137192 75.789
113.957031 75.777
114.782814 75.765
115.614578 75.754
116.452370 75.742
117.296234 75.730
118.146210 75.718
119.002342 75.707
119.864685 75.695
120.733276 75.683
121.608162 75.670
122.489388 75.657
123.376999 75.644
124.271042 75.631
125.171562 75.617
126.078606 75.603
126.992226 75.588
127.912460 75.573
128.839371 75.557
129.772995 75.541
130.713379 75.525
131.660583 75.508
132.614655 75.491
133.575638 75.475
134.543579 75.460
135.518539 75.447
136.500565 75.434
137.489700 75.421
138.486008 75.408
139.489532 75.395
140.500336 75.381
141.518463 75.367
142.543961 75.351
143.576889 75.335
144.617310 75.320
145.665268 75.304
146.720825 75.290
147.784027 75.277
148.854935 75.265
149.933594 75.255
151.020081 75.247
152.114441 75.240
153.216721 75.235
154.326996 75.229
155.445312 75.223
156.571732 75.214
157.706314 75.203
158.849121 75.192
160.000214 75.179
161.159637 75.165
162.327469 75.151
163.503754 75.135
164.688568 75.120
165.881973 75.105
167.084015 75.091
168.294769 75.077
169.514297 75.064
170.742661 75.050
171.979935 75.037
173.226166 75.025
174.481430 75.012
175.745789 74.999
177.019318 74.986
178.302078 74.974
179.594131 74.962
180.895538 74.951
182.206375 74.939
183.526718 74.928
184.856628 74.918
186.196182 74.908
187.545441 74.898
188.904465 74.888
190.273346 74.878
191.652145 74.867
193.040939 74.855
194.439789 74.844
195.848785 74.832
197.267990 74.820
198.697479 74.808
200.137329 74.797
201.587601 74.787
203.048386 74.777
204.519760 74.769
206.001801 74.761
207.494568 74.754
208.998154 74.747
210.512634 74.741
212.038101 74.735
213.574615 74.728
215.122269 74.720
216.681137 74.712
218.251297 74.704
219.832840 74.697
221.425842 74.690
223.030380 74.683
224.646545 74.677
226.274429 74.673
227.914108 74.671
229.565674 74.670
231.229202 74.670
232.904785 74.668
234.592514 74.665
236.292465 74.661
238.004730 74.655
239.729416 74.647
241.466599 74.638
243.216370 74.628
244.978821 74.617
246.754044 74.606
248.542130 74.596
250.343170 74.588
252.157257 74.582
253.984497 74.577
255.824966 74.575
257.678772 74.573
259.546021 74.572
261.426788 74.570
263.321198 74.568
265.229340 74.564
267.151306 74.559
269.087189 74.554
271.037109 74.549
273.001160 74.544
274.979431 74.539
276.972046 74.534
278.979095 74.529
281.000702 74.526
283.036957 74.523
285.087952 74.520
287.153809 74.517
289.234650 74.512
291.330566 74.507
293.441681 74.502
295.568085 74.497
297.709900 74.492
299.867218 74.487
302.040192 74.482
304.228912 74.479
306.433472 74.476
308.654022 74.474
310.890656 74.473
313.143494 74.472
315.412659 74.471
317.698273 74.469
320.000458 74.466
322.319305 74.463
324.654968 74.458
327.007538 74.453
329.377167 74.448
331.763977 74.443
334.168091 74.438
336.589600 74.435
339.028656 74.432
341.485413 74.430
343.959961 74.430
346.452423 74.430
348.962952 74.430
351.491669 74.431
354.038727 74.431
356.604248 74.430
359.188354 74.428
361.791168 74.426
364.412842 74.422
367.053528 74.417
369.713348 74.412
372.392456 74.407
375.090973 74.401
377.809052 74.397
380.546814 74.393
383.304413 74.389
386.082001 74.386
388.879700 74.383
391.697693 74.380
394.536102 74.376
397.395081 74.371
400.274780 74.364
403.175323 74.357
406.096893 74.349
409.039642 74.341
412.003723 74.333
414.989258 74.326
417.996429 74.321
421.025391 74.315
424.076324 74.311
427.149353 74.306
430.244659 74.302
433.362396 74.299
436.502716 74.295
439.665802 74.290
442.851807 74.285
446.060883 74.278
449.293213 74.271
452.548981 74.263
455.828339 74.256
459.131470 74.249
462.458527 74.242
465.809692 74.235
469.185150 74.228
472.585052 74.221
476.009613 74.213
479.458984 74.206
482.933350 74.200
486.432892 74.193
489.957794 74.187
493.508240 74.180
497.084412 74.174
500.686493 74.169
504.314667 74.163
507.969147 74.157
511.650085 74.151
515.357727 74.144
519.092224 74.137
522.853760 74.130
526.642578 74.122
530.458862 74.113
534.302795 74.103
538.174561 74.093
542.074402 74.083
546.002502 74.074
549.959045 74.065
553.944275 74.058
557.958374 74.051
562.001587 74.044
566.074097 74.038
570.176086 74.033
574.307800 74.027
578.469482 74.022
582.661316 74.015
586.883545 74.009
591.136353 74.001
595.419983 73.993
599.734619 73.983
604.080566 73.973
608.458008 73.962
612.867126 73.952
617.308228 73.942
621.781494 73.934
626.287170 73.926
630.825500 73.920
635.396729 73.915
640.001099 73.910
644.638794 73.907
649.310120 73.904
654.015259 73.901
658.754517 73.897
663.528137 73.893
668.336365 73.886
673.179382 73.878
678.057495 73.868
682.971008 73.857
687.920105 73.846
692.905029 73.835
697.926086 73.824
702.983521 73.813
708.077637 73.803
713.208679 73.793
718.376892 73.784
723.582520 73.776
728.825867 73.768
734.107239 73.759
739.426880 73.750
744.785095 73.741
750.182129 73.731
755.618286 73.720
761.093811 73.710
766.609009 73.701
772.164185 73.693
777.759583 73.686
783.395569 73.681
789.072388 73.676
794.790344 73.673
800.549744 73.670
806.350830 73.668
812.193970 73.666
818.079468 73.662
824.007629 73.658
829.978699 73.654
835.993042 73.649
842.050964 73.644
848.152832 73.639
854.298889 73.634
860.489502 73.630
866.724976 73.627
873.005615 73.625
879.331787 73.625
885.703796 73.627
892.121948 73.630
898.586609 73.634
905.098145 73.640
911.656860 73.647
918.263123 73.654
924.917236 73.663
931.619568 73.673
938.370483 73.684
945.170288 73.696
952.019409 73.709
958.918152 73.723
965.866882 73.738
972.865967 73.753
979.915771 73.770
987.016663 73.786
994.169006 73.803
1001.373169 73.820
1008.629517 73.836
1015.938477 73.851
1023.300415 73.867
1030.715698 73.883
1038.184692 73.900
1045.707764 73.918
1053.285400 73.937
1060.917969 73.956
1068.605835 73.976
1076.349365 73.997
1084.149048 74.018
1092.005249 74.039
1099.918335 74.061
1107.888794 74.083
1115.916992 74.104
1124.003418 74.125
1132.148438 74.145
1140.352417 74.165
1148.615845 74.186
1156.939209 74.207
1165.322876 74.229
1173.767334 74.251
1182.272949 74.272
1190.840210 74.293
1199.469482 74.314
1208.161377 74.335
1216.916260 74.357
1225.734497 74.380
1234.616699 74.402
1243.563232 74.426
1252.574585 74.451
1261.651245 74.477
1270.793701 74.503
1280.002441 74.529
1289.277832 74.553
1298.620483 74.577
1308.030762 74.601
1317.509277 74.623
1327.056519 74.644
1336.672974 74.664
1346.359009 74.685
1356.115234 74.708
1365.942261 74.735
1375.840454 74.765
1385.810303 74.797
1395.852417 74.831
1405.967285 74.868
1416.155518 74.906
1426.417603 74.947
1436.754028 74.988
1447.165283 75.029
1457.652100 75.071
1468.214844 75.112
1478.854126 75.153
1489.570557 75.192
1500.364624 75.229
1511.236938 75.265
1522.187988 75.299
1533.218384 75.333
1544.328735 75.367
1555.519531 75.400
1566.791504 75.433
1578.145142 75.468
1589.581055 75.505
1601.099854 75.545
1612.702026 75.586
1624.388306 75.628
1636.159302 75.671
1648.015625 75.715
1659.957886 75.762
1671.986572 75.808
1684.102417 75.854
1696.306152 75.901
1708.598267 75.951
1720.979492 76.004
1733.450439 76.059
1746.011719 76.115
1758.664062 76.172
1771.408081 76.230
1784.244385 76.291
1797.173706 76.353
1810.196777 76.416
1823.314209 76.481
1836.526733 76.547
1849.834961 76.615
1863.239624 76.684
1876.741455 76.755
1890.341064 76.829
1904.039307 76.905
1917.836792 76.984
1931.734253 77.065
1945.732422 77.150
1959.832031 77.238
1974.033813 77.330
1988.338501 77.425
2002.746826 77.521
2017.259521 77.620
2031.877441 77.720
2046.601318 77.822
2061.431885 77.927
2076.369873 78.032
2091.416016 78.137
2106.571289 78.241
2121.836426 78.344
2137.212158 78.447
2152.699219 78.549
2168.298584 78.651
2184.010986 78.754
2199.837158 78.856
2215.778076 78.957
2231.834473 79.058
2248.007324 79.156
2264.297363 79.253
2280.705322 79.348
2297.232178 79.439
2313.878906 79.528
2330.646240 79.614
2347.535156 79.697
2364.546387 79.778
2381.680908 79.858
2398.939453 79.936
2416.323242 80.013
2433.833008 80.090
2451.469482 80.166
2469.233887 80.242
2487.126953 80.318
2505.149658 80.393
2523.302979 80.467
2541.587891 80.539
2560.005371 80.610
2578.556152 80.679
2597.241455 80.747
2616.062256 80.813
2635.019287 80.878
2654.113770 80.942
2673.346680 81.004
2692.718750 81.065
2712.231201 81.124
2731.885254 81.182
2751.681641 81.238
2771.621582 81.292
2791.705811 81.342
2811.935547 81.389
2832.312012 81.432
2852.836182 81.474
2873.509033 81.513
2894.331543 81.548
2915.305176 81.578
2936.430664 81.604
2957.709229 81.625
2979.142090 81.644
3000.730225 81.660
3022.474854 81.671
3044.376953 81.680
3066.437744 81.685
3088.658447 81.686
3111.040039 81.684
3133.583984 81.678
3156.291260 81.670
3179.163086 81.657
3202.200684 81.641
3225.405029 81.621
3248.777588 81.598
3272.319580 81.572
3296.032227 81.543
3319.916748 81.512
3343.974121 81.478
3368.206055 81.441
3392.613525 81.402
3417.197754 81.360
3441.960205 81.315
3466.902100 81.267
3492.024658 81.215
3517.329346 81.161
3542.817383 81.105
3568.489990 81.049
3594.348633 80.991
3620.394775 80.933
3646.629639 80.875
3673.054688 80.818
3699.671143 80.762
3726.480469 80.705
3753.484131 80.647
3780.683350 80.588
3808.079834 80.528
3835.674805 80.469
3863.469727 80.411
3891.466064 80.352
3919.665283 80.293
3948.068848 80.234
3976.678223 80.176
4005.494873 80.116
4034.520264 80.051
4063.756104 79.983
4093.203857 79.914
4122.864746 79.845
4152.740723 79.776
4182.833008 79.707
4213.143555 79.638
4243.673828 79.569
4274.425293 79.502
4305.399414 79.437
4336.598145 79.371
4368.022949 79.303
4399.675293 79.234
4431.557129 79.163
4463.669922 79.091
4496.015625 79.018
4528.595703 78.942
4561.411621 78.863
4594.465332 78.782
4627.758789 78.701
4661.293457 78.620
4695.071289 78.540
4729.093750 78.460
4763.362793 78.382
4797.879883 78.307
4832.647461 78.236
4867.666992 78.168
4902.939941 78.103
4938.468750 78.043
4974.254883 77.987
5010.300293 77.934
5046.606934 77.882
5083.176758 77.830
5120.011719 77.777
5157.113281 77.723
5194.483887 77.669
5232.125488 77.612
5270.039551 77.553
5308.228516 77.493
5346.694336 77.431
5385.438477 77.369
5424.463379 77.308
5463.771484 77.246
5503.364258 77.186
5543.244141 77.128
5583.412598 77.073
5623.872070 77.019
5664.625000 76.967
5705.673340 76.917
5747.019043 76.869
5788.664551 76.823
5830.611816 76.779
5872.862793 76.735
5915.419922 76.690
5958.285645 76.644
6001.461914 76.597
6044.951172 76.550
6088.755371 76.505
6132.876953 76.460
6177.318359 76.417
6222.081543 76.375
6267.169434 76.337
6312.583984 76.303
6358.327637 76.272
6404.402832 76.245
6450.812012 76.220
6497.557129 76.198
6544.641113 76.178
6592.066406 76.160
6639.835449 76.143
6687.950195 76.127
6736.414062 76.113
6785.229004 76.099
6834.397461 76.087
6883.922363 76.076
6933.806152 76.067
6984.051270 76.060
7034.660645 76.052
7085.636719 76.045
7136.981934 76.038
7188.699219 76.030
7240.791504 76.021
7293.261230 76.009
7346.111328 75.993
7399.344238 75.973
7452.962891 75.947
7506.970215 75.916
7561.368652 75.880
7616.161621 75.839
7671.351562 75.792
7726.941406 75.737
7782.934082 75.675
7839.332520 75.605
7896.139648 75.524
7953.358398 75.433
8010.991699 75.331
8069.042480 75.220
8127.514160 75.101
8186.409668 74.974
8245.731445 74.838
8305.483398 74.695
8365.667969 74.544
8426.289062 74.387
8487.349609 74.223
8548.852539 74.055
8610.800781 73.881
8673.198242 73.703
8736.047852 73.519
8799.352539 73.330
8863.116211 73.139
8927.341797 72.949
8992.033203 72.767
9057.193359 72.597
9122.825195 72.439
9188.932617 72.293
9255.519531 72.161
9322.588867 72.049
9390.144531 71.957
9458.189453 71.886
9526.727539 71.833
9595.761719 71.795
9665.296875 71.774
9735.335938 71.771
9805.881836 71.786
9876.939453 71.817
9948.511719 71.865
10020.602539 71.930
10093.215820 72.010
10166.355469 72.103
10240.025391 72.202
10314.228516 72.304
10388.969727 72.405
10464.252930 72.500
10540.081055 72.583
10616.458984 72.650
10693.390625 72.694
10770.878906 72.714
10848.928711 72.710
10927.544922 72.681
11006.730469 72.626
11086.490234 72.545
11166.827148 72.437
11247.746094 72.303
11329.251953 72.145
11411.348633 71.965
11494.040039 71.767
11577.331055 71.552
11661.225586 71.324
11745.727539 71.083
11830.841797 70.837
11916.573242 70.590
12002.925781 70.348
12089.904297 70.115
12177.512695 69.892
12265.755859 69.681
12354.638672 69.483
12444.165039 69.304
12534.340820 69.142
12625.169922 68.997
12716.657227 68.867
12808.807617 68.751
12901.625977 68.646
12995.116211 68.551
13089.284180 68.463
13184.134766 68.381
13279.672852 68.302
13375.903320 68.225
13472.831055 68.148
13570.460938 68.069
13668.797852 67.988
13767.847656 67.902
13867.615234 67.812
13968.105469 67.716
14069.324219 67.615
14171.276367 67.509
14273.966797 67.399
14377.401367 67.287
14481.585938 67.172
14586.525391 67.057
14692.225586 66.942
14798.691406 66.832
14905.928711 66.728
15013.943359 66.632
15122.740234 66.543
15232.326172 66.463
15342.706055 66.394
15453.885742 66.335
15565.871094 66.289
15678.667969 66.254
15792.282227 66.232
15906.719727 66.221
16021.986328 66.222
16138.087891 66.234
16255.031250 66.253
16372.822266 66.277
16491.466797 66.305
16610.970703 66.334
16731.339844 66.364
16852.582031 66.390
16974.703125 66.410
17097.708984 66.423
17221.605469 66.426
17346.400391 66.416
17472.099609 66.392
17598.708984 66.353
17726.236328 66.297
17854.687500 66.224
17984.070312 66.131
18114.390625 66.015
18245.654297 65.877
18377.869141 65.713
18511.042969 65.527
18645.181641 65.319
18780.292969 65.096
18916.382812 64.864
19053.458984 64.627
19191.527344 64.392
19330.597656 64.164
19470.675781 63.948
19611.767578 63.750
19753.882812 63.566
19897.027344 63.323
20041.208984 62.479
