* Measurement data measured by REW V5.31
* Source: Headset (DS by VECLAN.COM), MICROPHONE (Master Volume), L, volume: 0.720. Timing signal peak level -34.7 dBFS, measurement signal peak level -14.7 dBFS
* Format: 2M Log Swept Sine, 1 sweep at -12.0 dBFS using an acoustic timing reference
* Dated: Apr 27, 2024 1:39:14 PM
* REW Settings:
*  C-weighting compensation: Off
*  Target level: 85.0 dB
* Note: ; Delay -0.0671 ms (-23 mm, -0.91 in) using estimated IR delay relative to Acoustic reference played from HEADPHONE R with no timing offset
* Measurement: Moondrop Blessing 3 S2 L
* Smoothing: 1/24 octave
* Frequency Step: 1/48 octave
* Start Frequency: 1.000 Hz
*
* Freq(Hz), SPL(dB), Phase(degrees)
1.000000, 75.058, -179.5813
1.015000, 75.268, 177.9633
1.030000, 75.485, 175.5330
1.044000, 75.694, 173.2838
1.060000, 75.941, 170.7317
1.075000, 76.182, 168.3539
1.090000, 76.433, 165.9902
1.106000, 76.713, 163.4999
1.120000, 76.973, 161.3798
1.138000, 77.330, 158.7683
1.150000, 77.580, 157.1061
1.172000, 78.062, 154.2233
1.180000, 78.244, 153.2234
1.206000, 78.854, 150.1714
1.220000, 79.193, 148.6478
1.241000, 79.711, 146.5080
1.250000, 79.935, 145.6410
1.265000, 80.311, 144.2578
1.280000, 80.687, 142.9463
1.315000, 81.558, 140.1306
1.320000, 81.681, 139.7532
1.340000, 82.165, 138.2967
1.360000, 82.634, 136.9180
1.380000, 83.085, 135.5668
1.400000, 83.514, 134.2564
1.430000, 84.106, 132.3752
1.450000, 84.461, 131.1671
1.475000, 84.857, 129.7143
1.500000, 85.211, 128.3597
1.525000, 85.528, 127.1151
1.550000, 85.813, 125.9712
1.575000, 86.070, 124.8944
1.600000, 86.302, 123.8559
1.625000, 86.514, 122.8835
1.650000, 86.710, 121.9667
1.675000, 86.893, 121.0959
1.700000, 87.067, 120.2625
1.725000, 87.235, 119.4585
1.750000, 87.403, 118.6771
1.775000, 87.573, 117.8950
1.800000, 87.750, 117.0907
1.825000, 87.935, 116.2963
1.850000, 88.125, 115.5201
1.875000, 88.313, 114.7775
1.900000, 88.497, 114.0723
1.925000, 88.677, 113.4024
1.950000, 88.853, 112.7651
1.975000, 89.025, 112.1400
2.000000, 89.193, 111.5078
2.030000, 89.391, 110.7790
2.060000, 89.584, 110.0755
2.090000, 89.773, 109.3917
2.120000, 89.959, 108.7219
2.140000, 90.081, 108.2807
2.180000, 90.321, 107.3849
2.200000, 90.440, 106.9211
2.240000, 90.672, 106.0140
2.270000, 90.841, 105.3589
2.300000, 91.005, 104.7262
2.330000, 91.166, 104.1146
2.360000, 91.323, 103.5220
2.400000, 91.528, 102.7099
2.430000, 91.678, 102.1108
2.470000, 91.873, 101.3295
2.500000, 92.017, 100.7533
2.540000, 92.206, 99.9937
2.580000, 92.391, 99.2234
2.620000, 92.572, 98.4287
2.650000, 92.704, 97.8454
2.690000, 92.876, 97.0849
2.720000, 93.002, 96.5278
2.760000, 93.166, 95.8034
2.800000, 93.326, 95.0570
2.850000, 93.520, 94.1397
2.900000, 93.709, 93.2415
2.950000, 93.893, 92.3561
3.000000, 94.070, 91.4496
3.040000, 94.207, 90.7230
3.070000, 94.307, 90.1859
3.110000, 94.437, 89.4814
3.150000, 94.564, 88.7911
3.200000, 94.718, 87.9175
3.250000, 94.868, 87.0506
3.300000, 95.014, 86.2007
3.350000, 95.155, 85.3609
3.400000, 95.292, 84.4947
3.450000, 95.424, 83.6263
3.500000, 95.551, 82.7748
3.550000, 95.674, 81.9442
3.600000, 95.793, 81.1097
3.650000, 95.908, 80.2853
3.700000, 96.019, 79.4747
3.750000, 96.126, 78.6700
3.820000, 96.269, 77.5215
3.870000, 96.366, 76.7100
3.950000, 96.516, 75.4519
4.000000, 96.605, 74.6722
4.060000, 96.710, 73.7484
4.120000, 96.809, 72.8368
4.180000, 96.905, 71.9295
4.250000, 97.011, 70.8609
4.310000, 97.098, 69.9734
4.370000, 97.181, 69.1113
4.440000, 97.275, 68.1019
4.500000, 97.351, 67.2501
4.550000, 97.411, 66.5508
4.620000, 97.492, 65.5650
4.680000, 97.559, 64.7380
4.750000, 97.634, 63.8063
4.820000, 97.706, 62.8800
4.870000, 97.756, 62.2253
4.940000, 97.822, 61.3260
5.000000, 97.877, 60.5587
5.080000, 97.948, 59.5545
5.150000, 98.007, 58.7064
5.220000, 98.063, 57.8567
5.300000, 98.124, 56.8991
5.380000, 98.182, 55.9654
5.450000, 98.231, 55.1541
5.520000, 98.278, 54.3683
5.600000, 98.330, 53.4814
5.700000, 98.391, 52.3850
5.800000, 98.448, 51.3216
5.900000, 98.503, 50.2817
6.000000, 98.553, 49.2670
6.080000, 98.592, 48.4627
6.150000, 98.624, 47.7833
6.220000, 98.654, 47.1110
6.300000, 98.687, 46.3639
6.400000, 98.727, 45.4533
6.500000, 98.763, 44.5644
6.600000, 98.799, 43.7148
6.700000, 98.832, 42.8918
6.800000, 98.864, 42.1008
6.900000, 98.895, 41.3348
7.000000, 98.927, 40.6062
7.100000, 98.959, 39.9047
7.200000, 98.992, 39.2320
7.300000, 99.026, 38.5770
7.400000, 99.061, 37.9464
7.500000, 99.098, 37.3292
7.620000, 99.144, 36.6096
7.750000, 99.197, 35.8444
7.880000, 99.252, 35.0865
8.000000, 99.305, 34.3939
8.120000, 99.358, 33.6914
8.250000, 99.417, 32.9214
8.380000, 99.473, 32.1451
8.500000, 99.522, 31.4130
8.620000, 99.569, 30.6715
8.750000, 99.614, 29.8653
8.850000, 99.645, 29.2445
9.000000, 99.684, 28.3170
9.120000, 99.709, 27.5853
9.250000, 99.729, 26.8098
9.380000, 99.742, 26.0564
9.500000, 99.749, 25.3867
9.620000, 99.751, 24.7542
9.750000, 99.748, 24.1063
9.880000, 99.734, 23.4979
10.000000, 99.709, 22.9835
10.150000, 99.666, 22.3608
10.300000, 99.615, 21.8060
10.440000, 99.563, 21.3477
10.600000, 99.503, 20.8842
10.750000, 99.451, 20.5012
10.900000, 99.403, 20.1619
11.060000, 99.359, 19.8094
11.200000, 99.326, 19.4886
11.380000, 99.288, 19.1019
11.500000, 99.265, 18.8561
11.720000, 99.229, 18.4193
11.800000, 99.218, 18.2617
12.060000, 99.196, 17.7180
12.200000, 99.191, 17.3680
12.410000, 99.190, 16.8142
12.500000, 99.190, 16.5623
12.650000, 99.189, 16.1215
12.800000, 99.187, 15.6538
13.150000, 99.172, 14.4077
13.200000, 99.169, 14.2109
13.400000, 99.148, 13.4108
13.600000, 99.118, 12.6125
13.800000, 99.076, 11.8391
14.000000, 99.025, 11.1135
14.300000, 98.936, 10.0827
14.500000, 98.873, 9.5023
14.750000, 98.798, 8.8945
15.000000, 98.736, 8.3913
15.250000, 98.695, 7.8948
15.500000, 98.668, 7.4171
15.750000, 98.649, 6.9330
16.000000, 98.633, 6.4316
16.250000, 98.616, 5.8823
16.500000, 98.596, 5.3533
16.750000, 98.573, 4.8710
17.000000, 98.555, 4.4426
17.250000, 98.543, 4.0322
17.500000, 98.541, 3.6418
17.750000, 98.545, 3.2395
18.000000, 98.554, 2.7946
18.250000, 98.561, 2.2738
18.500000, 98.560, 1.7091
18.750000, 98.546, 1.1338
19.000000, 98.520, 0.5844
19.250000, 98.486, 0.0698
19.500000, 98.450, -0.3743
19.750000, 98.415, -0.7603
20.000000, 98.387, -1.1243
20.299999, 98.360, -1.6235
20.600000, 98.329, -2.1998
20.900000, 98.281, -2.8378
21.200001, 98.203, -3.4685
21.400000, 98.135, -3.8142
21.799999, 97.980, -4.1533
22.000000, 97.909, -4.1179
22.400000, 97.827, -3.7690
22.700001, 97.837, -3.4630
23.000000, 97.900, -3.3667
23.299999, 97.989, -3.6427
23.600000, 98.069, -4.2808
24.000000, 98.113, -5.4775
24.299999, 98.090, -6.4137
24.700001, 98.004, -7.3815
25.000000, 97.929, -7.8066
25.400000, 97.856, -8.0745
25.799999, 97.830, -8.2137
26.200001, 97.836, -8.4525
26.500000, 97.843, -8.7340
26.900000, 97.842, -9.1846
27.200001, 97.834, -9.5441
27.600000, 97.816, -10.0306
28.000000, 97.791, -10.5400
28.500000, 97.737, -11.2100
29.000000, 97.653, -11.7632
29.500000, 97.567, -12.0940
30.000000, 97.516, -12.3123
30.400000, 97.501, -12.6004
30.700001, 97.493, -12.9263
31.100000, 97.468, -13.4664
31.500000, 97.421, -14.0165
32.000000, 97.353, -14.5378
32.500000, 97.303, -14.9061
33.000000, 97.279, -15.2700
33.500000, 97.256, -15.7139
34.000000, 97.219, -16.1288
34.500000, 97.173, -16.4109
35.000000, 97.128, -16.5421
35.500000, 97.085, -16.5497
36.000000, 97.050, -16.4054
36.500000, 97.045, -16.1617
37.000000, 97.090, -16.0784
37.500000, 97.155, -16.5201
38.200001, 97.143, -18.0922
38.700001, 96.987, -19.3122
39.500000, 96.593, -19.9272
40.000000, 96.422, -19.3870
40.599998, 96.396, -18.7772
41.200001, 96.470, -19.0901
41.799999, 96.494, -20.2186
42.500000, 96.401, -21.5264
43.099998, 96.300, -22.0776
43.700001, 96.253, -22.2841
44.400002, 96.248, -22.5789
45.000000, 96.235, -22.9014
45.500000, 96.209, -23.0865
46.200001, 96.177, -23.2036
46.799999, 96.151, -23.3265
47.500000, 96.097, -23.5299
48.200001, 96.024, -23.6571
48.700001, 95.978, -23.7267
49.400002, 95.927, -23.9617
50.000000, 95.878, -24.3168
50.799999, 95.802, -24.8093
51.500000, 95.756, -25.2412
52.200001, 95.717, -25.7950
53.000000, 95.644, -26.2909
53.799999, 95.595, -26.3441
54.500000, 95.605, -26.3490
55.200001, 95.617, -26.4882
56.000000, 95.626, -26.6366
57.000000, 95.638, -27.4030
58.000000, 95.437, -28.4909
59.000000, 95.169, -28.1373
60.000000, 95.071, -27.7415
60.799999, 94.990, -27.8483
61.500000, 94.931, -27.8603
62.200001, 94.912, -28.0713
63.000000, 94.864, -28.6770
64.000000, 94.734, -29.0874
65.000000, 94.662, -29.0779
66.000000, 94.617, -29.3416
67.000000, 94.538, -29.6653
68.000000, 94.441, -29.9290
69.000000, 94.331, -30.0455
70.000000, 94.254, -30.0215
71.000000, 94.204, -30.1813
72.000000, 94.146, -30.4454
73.000000, 94.082, -30.6896
74.000000, 94.004, -30.7903
75.000000, 93.949, -30.7681
76.199997, 93.877, -30.9724
77.500000, 93.769, -31.0514
78.800003, 93.696, -31.2596
80.000000, 93.602, -31.7083
81.199997, 93.496, -31.9336
82.500000, 93.413, -31.9970
83.800003, 93.353, -31.9767
85.000000, 93.300, -31.9734
86.199997, 93.225, -31.9021
87.500000, 93.150, -31.7953
88.500000, 93.084, -31.9533
90.000000, 92.934, -32.2751
91.199997, 92.819, -32.4110
92.500000, 92.718, -32.5121
93.800003, 92.643, -32.4891
95.000000, 92.591, -32.4498
96.199997, 92.520, -32.4244
97.500000, 92.411, -32.2274
98.800003, 92.300, -31.9808
100.000000, 92.192, -31.8624
101.500000, 92.072, -31.7948
103.000000, 91.993, -31.8650
104.400002, 91.942, -32.0879
106.000000, 91.873, -32.1886
107.500000, 91.805, -32.0706
109.000000, 91.729, -31.9194
110.599998, 91.619, -31.8008
112.000000, 91.520, -31.6760
113.800003, 91.394, -31.5367
115.000000, 91.320, -31.2854
117.199997, 91.214, -30.8290
118.000000, 91.168, -30.6616
120.599998, 91.043, -30.0941
122.000000, 90.969, -30.1365
124.099998, 90.848, -30.1660
125.000000, 90.798, -30.1716
126.500000, 90.723, -30.0657
128.000000, 90.665, -29.8832
131.500000, 90.485, -29.5816
132.000000, 90.453, -29.4384
134.000000, 90.364, -28.8009
136.000000, 90.302, -28.6058
138.000000, 90.209, -28.5934
140.000000, 90.118, -28.3039
143.000000, 90.031, -27.5512
145.000000, 89.943, -27.1627
147.500000, 89.793, -26.6891
150.000000, 89.711, -26.1639
152.500000, 89.669, -25.6008
155.000000, 89.528, -24.9960
157.500000, 89.437, -24.0289
160.000000, 89.547, -24.2369
162.500000, 89.501, -24.5721
165.000000, 89.315, -22.8974
167.500000, 89.281, -21.4540
170.000000, 89.300, -21.2913
172.500000, 89.331, -20.6276
175.000000, 89.322, -19.9296
177.500000, 89.219, -20.0594
180.000000, 89.172, -20.2140
182.500000, 89.169, -20.1410
185.000000, 89.044, -19.5638
187.500000, 88.886, -18.9767
190.000000, 88.847, -18.9517
192.500000, 88.869, -18.7029
195.000000, 88.848, -17.8055
197.500000, 88.746, -17.1021
200.000000, 88.637, -16.6835
203.000000, 88.638, -16.6429
206.000000, 88.627, -16.5740
209.000000, 88.556, -15.7670
212.000000, 88.576, -14.7285
214.000000, 88.615, -14.6282
218.000000, 88.552, -14.4141
220.000000, 88.489, -14.0165
224.000000, 88.405, -13.5542
227.000000, 88.397, -13.0375
230.000000, 88.387, -12.3452
233.000000, 88.354, -11.6951
236.000000, 88.321, -10.8906
240.000000, 88.280, -9.7925
243.000000, 88.280, -9.2157
247.000000, 88.313, -8.7255
250.000000, 88.298, -8.5731
254.000000, 88.269, -8.0764
258.000000, 88.255, -7.0836
262.000000, 88.220, -6.5034
265.000000, 88.203, -6.1969
269.000000, 88.189, -5.5798
272.000000, 88.188, -5.1789
276.000000, 88.200, -4.6931
280.000000, 88.206, -4.1454
285.000000, 88.204, -3.4913
290.000000, 88.197, -2.7442
295.000000, 88.184, -1.8812
300.000000, 88.188, -1.4004
304.000000, 88.217, -1.0906
307.000000, 88.225, -0.7870
311.000000, 88.215, -0.4188
315.000000, 88.219, -0.0038
320.000000, 88.242, 0.4949
325.000000, 88.258, 1.0459
330.000000, 88.276, 1.6166
335.000000, 88.315, 2.0874
340.000000, 88.326, 2.5497
345.000000, 88.329, 2.9950
350.000000, 88.336, 3.5278
355.000000, 88.354, 4.1077
360.000000, 88.369, 4.5181
365.000000, 88.375, 4.9164
370.000000, 88.388, 5.3680
375.000000, 88.405, 5.6355
382.000000, 88.420, 6.2486
387.000000, 88.439, 6.5735
395.000000, 88.455, 7.2115
400.000000, 88.466, 7.6970
406.000000, 88.478, 8.1746
412.000000, 88.487, 8.5695
418.000000, 88.501, 9.0022
425.000000, 88.523, 9.4111
431.000000, 88.526, 9.8618
437.000000, 88.541, 10.3341
444.000000, 88.549, 10.7357
450.000000, 88.554, 11.0654
455.000000, 88.564, 11.2211
462.000000, 88.557, 11.5795
468.000000, 88.540, 12.2806
475.000000, 88.538, 13.0095
482.000000, 88.578, 13.3726
487.000000, 88.609, 13.6288
494.000000, 88.635, 14.0126
500.000000, 88.640, 14.3363
508.000000, 88.649, 14.8374
515.000000, 88.658, 15.2955
522.000000, 88.678, 15.7318
530.000000, 88.695, 16.2255
538.000000, 88.711, 16.6840
545.000000, 88.725, 17.1240
552.000000, 88.739, 17.5303
560.000000, 88.760, 18.0085
570.000000, 88.785, 18.5829
580.000000, 88.801, 19.1877
590.000000, 88.814, 19.7710
600.000000, 88.832, 20.2468
608.000000, 88.847, 20.7803
615.000000, 88.855, 21.2625
622.000000, 88.861, 21.6722
630.000000, 88.872, 22.1590
640.000000, 88.885, 22.8128
650.000000, 88.895, 23.4807
660.000000, 88.907, 24.0984
670.000000, 88.931, 24.6777
680.000000, 88.948, 25.2756
690.000000, 88.964, 25.9407
700.000000, 88.984, 26.5984
710.000000, 89.007, 27.2152
720.000000, 89.035, 27.8466
730.000000, 89.066, 28.4708
740.000000, 89.091, 29.0765
750.000000, 89.117, 29.7179
762.000000, 89.153, 30.4928
775.000000, 89.189, 31.3351
788.000000, 89.227, 32.1619
800.000000, 89.270, 32.9344
812.000000, 89.314, 33.7135
825.000000, 89.364, 34.5402
838.000000, 89.419, 35.3359
850.000000, 89.470, 36.0610
862.000000, 89.522, 36.8163
875.000000, 89.582, 37.5896
885.000000, 89.630, 38.1702
900.000000, 89.708, 39.0711
912.000000, 89.781, 39.7461
925.000000, 89.859, 40.4039
938.000000, 89.934, 41.0950
950.000000, 90.001, 41.7592
962.000000, 90.065, 42.3605
975.000000, 90.143, 42.9796
988.000000, 90.223, 43.5497
1000.000000, 90.298, 44.0462
1015.000000, 90.384, 44.7337
1030.000000, 90.463, 45.4077
1044.000000, 90.551, 45.8334
1060.000000, 90.659, 46.3265
1075.000000, 90.753, 46.8225
1090.000000, 90.843, 47.2454
1106.000000, 90.949, 47.7376
1120.000000, 91.042, 48.1211
1138.000000, 91.154, 48.5535
1150.000000, 91.228, 48.8141
1172.000000, 91.361, 49.3206
1180.000000, 91.409, 49.4916
1206.000000, 91.556, 49.9858
1220.000000, 91.633, 50.2706
1241.000000, 91.745, 50.7131
1250.000000, 91.793, 50.8766
1265.000000, 91.873, 51.1090
1280.000000, 91.951, 51.3575
1315.000000, 92.117, 52.0370
1320.000000, 92.139, 52.1375
1340.000000, 92.215, 52.5112
1360.000000, 92.274, 52.8821
1380.000000, 92.328, 53.2405
1400.000000, 92.390, 53.6623
1430.000000, 92.487, 54.2951
1450.000000, 92.554, 54.7287
1475.000000, 92.641, 55.3214
1500.000000, 92.727, 55.9209
1525.000000, 92.803, 56.5030
1550.000000, 92.874, 57.1199
1575.000000, 92.949, 57.7241
1600.000000, 93.024, 58.3509
1625.000000, 93.100, 59.0169
1650.000000, 93.178, 59.7044
1675.000000, 93.253, 60.4286
1700.000000, 93.330, 61.1522
1725.000000, 93.414, 61.8681
1750.000000, 93.508, 62.6152
1775.000000, 93.613, 63.2805
1800.000000, 93.718, 63.9413
1825.000000, 93.816, 64.6017
1850.000000, 93.912, 65.2137
1875.000000, 94.010, 65.8094
1900.000000, 94.110, 66.4224
1925.000000, 94.214, 67.0190
1950.000000, 94.323, 67.5944
1975.000000, 94.430, 68.1629
2000.000000, 94.533, 68.7422
2030.000000, 94.658, 69.4240
2060.000000, 94.791, 70.0619
2090.000000, 94.932, 70.7094
2120.000000, 95.077, 71.2994
2140.000000, 95.176, 71.6586
2180.000000, 95.372, 72.4020
2200.000000, 95.471, 72.7287
2240.000000, 95.669, 73.3379
2270.000000, 95.818, 73.7663
2300.000000, 95.970, 74.1412
2330.000000, 96.127, 74.4533
2360.000000, 96.281, 74.7563
2400.000000, 96.483, 75.0522
2430.000000, 96.634, 75.2285
2470.000000, 96.835, 75.3900
2500.000000, 96.984, 75.4580
2540.000000, 97.180, 75.4617
2580.000000, 97.368, 75.3966
2620.000000, 97.548, 75.2590
2650.000000, 97.679, 75.1067
2690.000000, 97.853, 74.8703
2720.000000, 97.978, 74.6316
2760.000000, 98.138, 74.2650
2800.000000, 98.288, 73.8076
2850.000000, 98.463, 73.0869
2900.000000, 98.623, 72.1611
2950.000000, 98.747, 71.1012
3000.000000, 98.827, 69.9787
3040.000000, 98.864, 69.0641
3070.000000, 98.876, 68.3868
3110.000000, 98.875, 67.5194
3150.000000, 98.856, 66.7009
3200.000000, 98.807, 65.7715
3250.000000, 98.728, 64.9778
3300.000000, 98.633, 64.3576
3350.000000, 98.536, 63.8343
3400.000000, 98.438, 63.4218
3450.000000, 98.337, 63.0532
3500.000000, 98.226, 62.7626
3550.000000, 98.104, 62.5923
3600.000000, 97.977, 62.5059
3650.000000, 97.845, 62.5887
3700.000000, 97.711, 62.8436
3750.000000, 97.589, 63.2158
3820.000000, 97.443, 63.8354
3870.000000, 97.348, 64.2876
3950.000000, 97.208, 64.9588
4000.000000, 97.118, 65.3801
4060.000000, 97.001, 65.8843
4120.000000, 96.879, 66.4402
4180.000000, 96.752, 67.0665
4250.000000, 96.608, 67.8466
4310.000000, 96.483, 68.5975
4370.000000, 96.350, 69.3913
4440.000000, 96.193, 70.3990
4500.000000, 96.063, 71.2600
4550.000000, 95.952, 72.0396
4620.000000, 95.799, 73.1252
4680.000000, 95.673, 74.0912
4750.000000, 95.526, 75.2493
4820.000000, 95.373, 76.4788
4870.000000, 95.263, 77.3931
4940.000000, 95.111, 78.7867
5000.000000, 94.982, 80.0797
5080.000000, 94.820, 81.9693
5150.000000, 94.696, 83.7622
5220.000000, 94.595, 85.7310
5300.000000, 94.524, 88.0845
5380.000000, 94.513, 90.5546
5450.000000, 94.560, 92.6676
5520.000000, 94.671, 94.6223
5600.000000, 94.880, 96.4786
5700.000000, 95.231, 97.7499
5800.000000, 95.594, 97.3108
5900.000000, 95.790, 95.1515
6000.000000, 95.651, 92.0584
6080.000000, 95.281, 89.9320
6150.000000, 94.814, 88.8298
6220.000000, 94.265, 88.6026
6300.000000, 93.592, 89.5466
6400.000000, 92.771, 92.2763
6500.000000, 92.051, 96.5687
6600.000000, 91.504, 102.0820
6700.000000, 91.172, 108.2989
6800.000000, 91.062, 114.6864
6900.000000, 91.177, 120.8100
7000.000000, 91.486, 126.4133
7100.000000, 91.934, 131.3336
7200.000000, 92.475, 135.4277
7300.000000, 93.078, 138.9561
7400.000000, 93.785, 141.8663
7500.000000, 94.609, 143.6656
7620.000000, 95.710, 143.7487
7750.000000, 96.883, 140.8790
7880.000000, 97.722, 134.7411
8000.000000, 97.999, 126.9913
8120.000000, 97.703, 118.8770
8250.000000, 96.814, 111.6309
8380.000000, 95.561, 107.3257
8500.000000, 94.296, 106.0424
8620.000000, 93.070, 106.9563
8750.000000, 91.854, 109.6788
8850.000000, 91.012, 112.7041
9000.000000, 89.921, 118.1836
9120.000000, 89.198, 123.1084
9250.000000, 88.546, 128.7176
9380.000000, 88.014, 134.5291
9500.000000, 87.629, 139.9043
9620.000000, 87.335, 145.3103
9750.000000, 87.115, 151.0725
9880.000000, 86.996, 156.5856
10000.000000, 86.966, 161.4298
10150.000000, 87.011, 166.9458
10300.000000, 87.132, 171.7178
10440.000000, 87.282, 175.4201
10600.000000, 87.440, 178.6306
10750.000000, 87.529, -179.2361
10900.000000, 87.501, -177.7383
11060.000000, 87.314, -176.2921
11200.000000, 87.037, -174.7278
11380.000000, 86.597, -172.0161
11500.000000, 86.293, -169.7827
11720.000000, 85.754, -165.3220
11800.000000, 85.552, -163.5934
12060.000000, 84.856, -157.3096
12200.000000, 84.490, -153.4747
12410.000000, 83.962, -147.4010
12500.000000, 83.740, -144.6639
12650.000000, 83.385, -139.8218
12800.000000, 83.058, -134.6147
13150.000000, 82.501, -120.9561
13200.000000, 82.454, -118.8523
13400.000000, 82.372, -110.2702
13600.000000, 82.476, -101.4866
13800.000000, 82.807, -92.8643
14000.000000, 83.376, -84.7162
14300.000000, 84.637, -74.2160
14500.000000, 85.743, -69.0024
14750.000000, 87.343, -65.8744
15000.000000, 88.871, -67.6387
15250.000000, 89.871, -73.6436
15500.000000, 90.113, -80.8464
15750.000000, 89.783, -86.1045
16000.000000, 89.239, -88.4143
16250.000000, 88.753, -88.3576
16500.000000, 88.464, -87.2162
16750.000000, 88.396, -86.1594
17000.000000, 88.476, -86.2754
17250.000000, 88.559, -88.1554
17500.000000, 88.465, -91.5593
17750.000000, 88.058, -95.2990
18000.000000, 87.395, -97.9620
18250.000000, 86.729, -98.9680
18500.000000, 86.327, -99.0250
18750.000000, 86.319, -99.2872
19000.000000, 86.550, -100.5120
19250.000000, 86.634, -102.7997
19500.000000, 86.256, -105.5956
19750.000000, 85.382, -108.1889
20000.000000, 84.086, -110.2532
20300.000000, 82.082, -111.7948
20600.000000, 79.740, -112.0171
20900.000000, 77.092, -110.8354
21200.000000, 74.124, -108.6687
21400.000000, 71.939, -106.8198
21800.000000, 66.825, -102.2342
22000.000000, 63.603, -99.0336
22400.000000, 55.057, -89.5173
22700.000000, 47.077, -78.3000
23000.000000, 38.814, -63.0613
23300.000000, 33.215, 17.6496
23600.000000, 31.772, 68.2692
24000.000000, 31.491, -109.8752
