* Measurement data measured by REW V5.30.9
* Source: Headset (DS by VECLAN.COM), MICROPHONE (Master Volume), L, volume: 0.720. Timing signal peak level -15.2 dBFS, measurement signal peak level -14.0 dBFS
* Format: 2M Log Swept Sine, 1 sweep at -12.0 dBFS using an acoustic timing reference
* Dated: Mar 21, 2024 1:46:57 PM
* REW Settings:
*  C-weighting compensation: Off
*  Target level: 85.0 dB
* Note: ; Delay -0.0689 ms (-24 mm, -0.93 in) using estimated IR delay relative to Acoustic reference played from HEADPHONE L with no timing offset
* Measurement: Xelastec L
* Smoothing: 1/24 octave
* Frequency Step: 1/48 octave
* Start Frequency: 1.000 Hz
*
* Freq(Hz), SPL(dB), Phase(degrees)
1.000000, 64.428, -47.6428
1.015000, 65.350, -48.0843
1.030000, 66.233, -48.5691
1.044000, 67.017, -49.0585
1.060000, 67.854, -49.6588
1.075000, 68.574, -50.2586
1.090000, 69.227, -50.8879
1.106000, 69.857, -51.5639
1.120000, 70.376, -52.1172
1.138000, 71.017, -52.7545
1.150000, 71.429, -53.1366
1.172000, 72.156, -53.7686
1.180000, 72.411, -53.9843
1.206000, 73.208, -54.6230
1.220000, 73.618, -54.9341
1.241000, 74.207, -55.3675
1.250000, 74.451, -55.5432
1.265000, 74.846, -55.8250
1.280000, 75.227, -56.0958
1.315000, 76.068, -56.6978
1.320000, 76.182, -56.7816
1.340000, 76.628, -57.1136
1.360000, 77.055, -57.4424
1.380000, 77.463, -57.8101
1.400000, 77.855, -58.1960
1.430000, 78.413, -58.7862
1.450000, 78.767, -59.1887
1.475000, 79.185, -59.6895
1.500000, 79.559, -60.1525
1.525000, 79.885, -60.5664
1.550000, 80.168, -60.9378
1.575000, 80.414, -61.2964
1.600000, 80.627, -61.6667
1.625000, 80.813, -62.0158
1.650000, 80.977, -62.3495
1.675000, 81.125, -62.6726
1.700000, 81.263, -62.9895
1.725000, 81.395, -63.3037
1.750000, 81.527, -63.6184
1.775000, 81.665, -63.9532
1.800000, 81.814, -64.3265
1.825000, 81.977, -64.7036
1.850000, 82.149, -65.0751
1.875000, 82.320, -65.4268
1.900000, 82.488, -65.7561
1.925000, 82.651, -66.0652
1.950000, 82.810, -66.3570
1.975000, 82.966, -66.6510
2.000000, 83.119, -66.9662
2.030000, 83.298, -67.3314
2.060000, 83.474, -67.6881
2.090000, 83.646, -68.0401
2.120000, 83.817, -68.3908
2.140000, 83.929, -68.6252
2.180000, 84.152, -69.1191
2.200000, 84.263, -69.3861
2.240000, 84.481, -69.9039
2.270000, 84.641, -70.2713
2.300000, 84.797, -70.6218
2.330000, 84.951, -70.9583
2.360000, 85.103, -71.2841
2.400000, 85.301, -71.7541
2.430000, 85.447, -72.1072
2.470000, 85.639, -72.5743
2.500000, 85.781, -72.9248
2.540000, 85.968, -73.3953
2.580000, 86.153, -73.8849
2.620000, 86.336, -74.3992
2.650000, 86.470, -74.7722
2.690000, 86.647, -75.2551
2.720000, 86.777, -75.6084
2.760000, 86.948, -76.0690
2.800000, 87.116, -76.5629
2.850000, 87.322, -77.1826
2.900000, 87.524, -77.8043
2.950000, 87.721, -78.4289
3.000000, 87.914, -79.0774
3.040000, 88.065, -79.5980
3.070000, 88.176, -79.9825
3.110000, 88.322, -80.4881
3.150000, 88.465, -80.9870
3.200000, 88.640, -81.6344
3.250000, 88.811, -82.2923
3.300000, 88.979, -82.9497
3.350000, 89.142, -83.6055
3.400000, 89.302, -84.2903
3.450000, 89.457, -84.9810
3.500000, 89.609, -85.6611
3.550000, 89.756, -86.3291
3.600000, 89.899, -87.0121
3.650000, 90.038, -87.6970
3.700000, 90.173, -88.3777
3.750000, 90.304, -89.0578
3.820000, 90.480, -90.0378
3.870000, 90.601, -90.7336
3.950000, 90.787, -91.8163
4.000000, 90.899, -92.4931
4.060000, 91.029, -93.3008
4.120000, 91.154, -94.1022
4.180000, 91.273, -94.9030
4.250000, 91.407, -95.8499
4.310000, 91.517, -96.6339
4.370000, 91.622, -97.3929
4.440000, 91.740, -98.2825
4.500000, 91.836, -99.0328
4.550000, 91.912, -99.6475
4.620000, 92.014, -100.5131
4.680000, 92.099, -101.2339
4.750000, 92.194, -102.0366
4.820000, 92.287, -102.8277
4.870000, 92.350, -103.3828
4.940000, 92.435, -104.1385
5.000000, 92.506, -104.7792
5.080000, 92.597, -105.6089
5.150000, 92.676, -106.2977
5.220000, 92.751, -106.9797
5.300000, 92.835, -107.7375
5.380000, 92.916, -108.4674
5.450000, 92.987, -109.0998
5.520000, 93.057, -109.7058
5.600000, 93.136, -110.3815
5.700000, 93.233, -111.2088
5.800000, 93.330, -112.0111
5.900000, 93.426, -112.8046
6.000000, 93.521, -113.5794
6.080000, 93.596, -114.1989
6.150000, 93.662, -114.7276
6.220000, 93.726, -115.2632
6.300000, 93.799, -115.8695
6.400000, 93.889, -116.6219
6.500000, 93.977, -117.3758
6.600000, 94.063, -118.1200
6.700000, 94.146, -118.8683
6.800000, 94.226, -119.6104
6.900000, 94.303, -120.3494
7.000000, 94.377, -121.0739
7.100000, 94.448, -121.7960
7.200000, 94.516, -122.5067
7.300000, 94.581, -123.2082
7.400000, 94.643, -123.8931
7.500000, 94.702, -124.5741
7.620000, 94.769, -125.3694
7.750000, 94.838, -126.2010
7.880000, 94.903, -127.0123
8.000000, 94.960, -127.7332
8.120000, 95.014, -128.4330
8.250000, 95.070, -129.1684
8.380000, 95.123, -129.8759
8.500000, 95.169, -130.5092
8.620000, 95.213, -131.1201
8.750000, 95.259, -131.7565
8.850000, 95.293, -132.2276
9.000000, 95.341, -132.9011
9.120000, 95.379, -133.4166
9.250000, 95.419, -133.9514
9.380000, 95.458, -134.4596
9.500000, 95.495, -134.9131
9.620000, 95.532, -135.3455
9.750000, 95.572, -135.7966
9.880000, 95.607, -136.2424
10.000000, 95.631, -136.6436
10.150000, 95.653, -137.1754
10.300000, 95.668, -137.7055
10.440000, 95.677, -138.2028
10.600000, 95.684, -138.7770
10.750000, 95.689, -139.3260
10.900000, 95.692, -139.8807
11.060000, 95.690, -140.4969
11.200000, 95.684, -141.0696
11.380000, 95.666, -141.7753
11.500000, 95.648, -142.2195
11.720000, 95.605, -142.9579
11.800000, 95.588, -143.1951
12.060000, 95.533, -143.8704
12.200000, 95.508, -144.1965
12.410000, 95.479, -144.5935
12.500000, 95.470, -144.7369
12.650000, 95.461, -144.9468
12.800000, 95.458, -145.1391
13.150000, 95.483, -145.6565
13.200000, 95.490, -145.7499
13.400000, 95.521, -146.1575
13.600000, 95.554, -146.6227
13.800000, 95.586, -147.1429
14.000000, 95.611, -147.7020
14.300000, 95.633, -148.6378
14.500000, 95.637, -149.2373
14.750000, 95.632, -149.9224
15.000000, 95.625, -150.5223
15.250000, 95.627, -151.0931
15.500000, 95.635, -151.6011
15.750000, 95.651, -152.0692
16.000000, 95.671, -152.5255
16.250000, 95.696, -153.0314
16.500000, 95.721, -153.5463
16.750000, 95.743, -154.0630
17.000000, 95.761, -154.5702
17.250000, 95.776, -155.0785
17.500000, 95.786, -155.5442
17.750000, 95.793, -155.9529
18.000000, 95.801, -156.3064
18.250000, 95.812, -156.6345
18.500000, 95.829, -156.9362
18.750000, 95.851, -157.2333
19.000000, 95.878, -157.5490
19.250000, 95.905, -157.9213
19.500000, 95.927, -158.3203
19.750000, 95.940, -158.7255
20.000000, 95.943, -159.1060
20.299999, 95.937, -159.5197
20.600000, 95.930, -159.8350
20.900000, 95.934, -160.0817
21.200001, 95.953, -160.3549
21.400000, 95.972, -160.5915
21.799999, 96.006, -161.2386
22.000000, 96.010, -161.6383
22.400000, 95.978, -162.4796
22.700001, 95.919, -162.9587
23.000000, 95.851, -163.1962
23.299999, 95.801, -163.2119
23.600000, 95.793, -163.1069
24.000000, 95.850, -163.1145
24.299999, 95.917, -163.4430
24.700001, 95.975, -164.2991
25.000000, 95.963, -165.0657
25.400000, 95.872, -165.8684
25.799999, 95.748, -166.0556
26.200001, 95.679, -165.6546
26.500000, 95.697, -165.2292
26.900000, 95.803, -164.9233
27.200001, 95.907, -165.0648
27.600000, 96.018, -165.6980
28.000000, 96.066, -166.5552
28.500000, 96.051, -167.4967
29.000000, 96.012, -168.0737
29.500000, 95.993, -168.4507
30.000000, 95.988, -168.8073
30.400000, 95.984, -169.1097
30.700001, 95.981, -169.3215
31.100000, 95.979, -169.5847
31.500000, 95.985, -169.8600
32.000000, 95.995, -170.2392
32.500000, 96.000, -170.6580
33.000000, 95.996, -171.0409
33.500000, 95.992, -171.3601
34.000000, 95.996, -171.6121
34.500000, 96.012, -171.8487
35.000000, 96.036, -172.1265
35.500000, 96.059, -172.4974
36.000000, 96.064, -172.9227
36.500000, 96.047, -173.2971
37.000000, 96.024, -173.5409
37.500000, 96.011, -173.7191
38.200001, 96.007, -174.0735
38.700001, 95.986, -174.3916
39.500000, 95.936, -174.6930
40.000000, 95.930, -174.7853
40.599998, 95.948, -175.0589
41.200001, 95.952, -175.5085
41.799999, 95.935, -175.8944
42.500000, 95.936, -176.1951
43.099998, 95.958, -176.5444
43.700001, 95.964, -176.9963
44.400002, 95.943, -177.3774
45.000000, 95.935, -177.5336
45.500000, 95.941, -177.6687
46.200001, 95.946, -177.9498
46.799999, 95.936, -178.1959
47.500000, 95.920, -178.4293
48.200001, 95.904, -178.6547
48.700001, 95.890, -178.8208
49.400002, 95.873, -179.0469
50.000000, 95.861, -179.2410
50.799999, 95.854, -179.5165
51.500000, 95.857, -179.8043
52.200001, 95.861, 179.8108
53.000000, 95.843, 179.3483
53.799999, 95.809, 179.0645
54.500000, 95.793, 178.9372
55.200001, 95.787, 178.7579
56.000000, 95.764, 178.4982
57.000000, 95.716, 178.3645
58.000000, 95.701, 178.4397
59.000000, 95.743, 178.2980
60.000000, 95.782, 177.6585
60.799999, 95.766, 177.0447
61.500000, 95.732, 176.6626
62.200001, 95.701, 176.4317
63.000000, 95.680, 176.2641
64.000000, 95.667, 176.0635
65.000000, 95.647, 175.7994
66.000000, 95.614, 175.6228
67.000000, 95.592, 175.3962
68.000000, 95.549, 175.0203
69.000000, 95.489, 174.8158
70.000000, 95.469, 174.6951
71.000000, 95.470, 174.3400
72.000000, 95.451, 173.9327
73.000000, 95.432, 173.7343
74.000000, 95.437, 173.6000
75.000000, 95.445, 173.3723
76.199997, 95.422, 173.0755
77.500000, 95.379, 172.9312
78.800003, 95.348, 172.7608
80.000000, 95.306, 172.5129
81.199997, 95.281, 172.3950
82.500000, 95.290, 172.0313
83.800003, 95.274, 171.5224
85.000000, 95.242, 171.1869
86.199997, 95.206, 170.9985
87.500000, 95.174, 170.9373
88.500000, 95.161, 170.8434
90.000000, 95.122, 170.5462
91.199997, 95.079, 170.2726
92.500000, 95.024, 169.9833
93.800003, 94.971, 169.7522
95.000000, 94.926, 169.6272
96.199997, 94.905, 169.5789
97.500000, 94.894, 169.3640
98.800003, 94.858, 169.1236
100.000000, 94.827, 169.0592
101.500000, 94.813, 168.9167
103.000000, 94.798, 168.6140
104.400002, 94.767, 168.3309
106.000000, 94.727, 168.1677
107.500000, 94.695, 168.0456
109.000000, 94.659, 167.8985
110.599998, 94.617, 167.7029
112.000000, 94.581, 167.5226
113.800003, 94.539, 167.3501
115.000000, 94.516, 167.2775
117.199997, 94.471, 167.2288
118.000000, 94.453, 167.2112
120.599998, 94.384, 166.9932
122.000000, 94.335, 166.7916
124.099998, 94.261, 166.5556
125.000000, 94.234, 166.5199
126.500000, 94.203, 166.5224
128.000000, 94.182, 166.4869
131.500000, 94.116, 166.2010
132.000000, 94.105, 166.1559
134.000000, 94.057, 165.9763
136.000000, 94.001, 165.8029
138.000000, 93.927, 165.6874
140.000000, 93.870, 165.8389
143.000000, 93.837, 165.4936
145.000000, 93.762, 165.3980
147.500000, 93.688, 165.9197
150.000000, 93.657, 166.4693
152.500000, 93.636, 167.0520
155.000000, 93.684, 167.0785
157.500000, 93.658, 166.3962
160.000000, 93.613, 166.1125
162.500000, 93.580, 165.9070
165.000000, 93.517, 165.7546
167.500000, 93.450, 165.7831
170.000000, 93.399, 165.8839
172.500000, 93.351, 165.8787
175.000000, 93.291, 165.7147
177.500000, 93.230, 165.5821
180.000000, 93.179, 165.5771
182.500000, 93.120, 165.6710
185.000000, 93.057, 165.7758
187.500000, 92.990, 165.7197
190.000000, 92.937, 165.7005
192.500000, 92.886, 165.7061
195.000000, 92.827, 165.8683
197.500000, 92.795, 166.0591
200.000000, 92.790, 166.0364
203.000000, 92.795, 166.0596
206.000000, 92.795, 166.2546
209.000000, 92.706, 166.3729
212.000000, 92.592, 166.5844
214.000000, 92.543, 166.6067
218.000000, 92.536, 166.4509
220.000000, 92.517, 166.4137
224.000000, 92.436, 166.8725
227.000000, 92.356, 166.8824
230.000000, 92.297, 166.8306
233.000000, 92.257, 166.6624
236.000000, 92.172, 166.7106
240.000000, 92.129, 167.3343
243.000000, 92.115, 167.1228
247.000000, 92.032, 167.7308
250.000000, 92.007, 167.8769
254.000000, 91.930, 167.5319
258.000000, 91.868, 167.7786
262.000000, 91.809, 168.0760
265.000000, 91.800, 168.3233
269.000000, 91.793, 168.6188
272.000000, 91.746, 169.0965
276.000000, 91.673, 169.5223
280.000000, 91.635, 169.4665
285.000000, 91.607, 169.6846
290.000000, 91.553, 169.8927
295.000000, 91.504, 169.9768
300.000000, 91.427, 170.2708
304.000000, 91.370, 170.5617
307.000000, 91.340, 170.7942
311.000000, 91.311, 171.1227
315.000000, 91.288, 171.3835
320.000000, 91.250, 171.6562
325.000000, 91.215, 172.0233
330.000000, 91.176, 172.3655
335.000000, 91.146, 172.7263
340.000000, 91.110, 172.9556
345.000000, 91.048, 173.1522
350.000000, 91.024, 173.3298
355.000000, 91.037, 173.9291
360.000000, 90.974, 174.5216
365.000000, 90.890, 174.8535
370.000000, 90.844, 175.1120
375.000000, 90.838, 175.4890
382.000000, 90.781, 176.1353
387.000000, 90.713, 176.3489
395.000000, 90.643, 176.9228
400.000000, 90.605, 177.3858
406.000000, 90.555, 177.8975
412.000000, 90.518, 178.3877
418.000000, 90.495, 178.8334
425.000000, 90.466, 179.4676
431.000000, 90.416, -179.9802
437.000000, 90.358, -179.6286
444.000000, 90.326, -179.4247
450.000000, 90.261, -179.5334
455.000000, 90.205, -179.2167
462.000000, 90.192, -178.3905
468.000000, 90.220, -177.7004
475.000000, 90.225, -176.8947
482.000000, 90.172, -176.2660
487.000000, 90.132, -175.9225
494.000000, 90.100, -175.3932
500.000000, 90.075, -174.8852
508.000000, 90.043, -174.1116
515.000000, 90.015, -173.5281
522.000000, 90.004, -172.9386
530.000000, 90.007, -172.2480
538.000000, 89.986, -171.6815
545.000000, 89.965, -171.2239
552.000000, 89.949, -170.6989
560.000000, 89.937, -170.0469
570.000000, 89.918, -169.3102
580.000000, 89.892, -168.5578
590.000000, 89.871, -167.6296
600.000000, 89.850, -166.8707
608.000000, 89.835, -166.2635
615.000000, 89.829, -165.7066
622.000000, 89.826, -165.1359
630.000000, 89.816, -164.5111
640.000000, 89.811, -163.7209
650.000000, 89.824, -162.8149
660.000000, 89.814, -162.1589
670.000000, 89.763, -161.1683
680.000000, 89.755, -160.2414
690.000000, 89.776, -159.5540
700.000000, 89.800, -158.8139
710.000000, 89.811, -157.9190
720.000000, 89.830, -157.1181
730.000000, 89.841, -156.2273
740.000000, 89.847, -155.3354
750.000000, 89.863, -154.4852
762.000000, 89.884, -153.5075
775.000000, 89.910, -152.4216
788.000000, 89.935, -151.2754
800.000000, 89.974, -150.2694
812.000000, 90.028, -149.2726
825.000000, 90.076, -148.3221
838.000000, 90.110, -147.2567
850.000000, 90.153, -146.1858
862.000000, 90.224, -145.1200
875.000000, 90.294, -144.0893
885.000000, 90.341, -143.3973
900.000000, 90.419, -142.3158
912.000000, 90.495, -141.4197
925.000000, 90.584, -140.5373
938.000000, 90.675, -139.6552
950.000000, 90.753, -138.9118
962.000000, 90.825, -138.1596
975.000000, 90.907, -137.2997
988.000000, 90.995, -136.4921
1000.000000, 91.073, -135.7661
1015.000000, 91.175, -134.9323
1030.000000, 91.281, -134.1865
1044.000000, 91.379, -133.5146
1060.000000, 91.492, -132.7401
1075.000000, 91.599, -132.0331
1090.000000, 91.714, -131.3920
1106.000000, 91.848, -130.7772
1120.000000, 91.966, -130.2758
1138.000000, 92.113, -129.6331
1150.000000, 92.205, -129.2194
1172.000000, 92.370, -128.4542
1180.000000, 92.432, -128.1932
1206.000000, 92.634, -127.5129
1220.000000, 92.744, -127.0846
1241.000000, 92.910, -126.4693
1250.000000, 92.978, -126.2378
1265.000000, 93.085, -125.8556
1280.000000, 93.188, -125.4670
1315.000000, 93.420, -124.5711
1320.000000, 93.453, -124.4447
1340.000000, 93.579, -123.9657
1360.000000, 93.680, -123.4711
1380.000000, 93.778, -122.9868
1400.000000, 93.896, -122.5108
1430.000000, 94.079, -121.7737
1450.000000, 94.200, -121.3238
1475.000000, 94.351, -120.7611
1500.000000, 94.501, -120.1776
1525.000000, 94.647, -119.6356
1550.000000, 94.798, -119.0736
1575.000000, 94.947, -118.5264
1600.000000, 95.095, -118.0186
1625.000000, 95.247, -117.5211
1650.000000, 95.401, -117.0266
1675.000000, 95.549, -116.5537
1700.000000, 95.697, -116.1059
1725.000000, 95.874, -115.7909
1750.000000, 96.038, -115.3991
1775.000000, 96.173, -114.9847
1800.000000, 96.317, -114.6299
1825.000000, 96.468, -114.3173
1850.000000, 96.621, -114.0515
1875.000000, 96.777, -113.8311
1900.000000, 96.936, -113.6524
1925.000000, 97.094, -113.5183
1950.000000, 97.248, -113.4098
1975.000000, 97.403, -113.3613
2000.000000, 97.555, -113.3542
2030.000000, 97.733, -113.3945
2060.000000, 97.906, -113.5039
2090.000000, 98.073, -113.6411
2120.000000, 98.236, -113.8524
2140.000000, 98.344, -114.0472
2180.000000, 98.549, -114.4513
2200.000000, 98.642, -114.6826
2240.000000, 98.813, -115.1909
2270.000000, 98.932, -115.6095
2300.000000, 99.042, -116.0538
2330.000000, 99.143, -116.5066
2360.000000, 99.236, -116.9706
2400.000000, 99.349, -117.6282
2430.000000, 99.426, -118.1201
2470.000000, 99.519, -118.7823
2500.000000, 99.578, -119.2964
2540.000000, 99.641, -119.9839
2580.000000, 99.693, -120.7026
2620.000000, 99.732, -121.4477
2650.000000, 99.749, -121.9999
2690.000000, 99.756, -122.6852
2720.000000, 99.747, -123.1945
2760.000000, 99.716, -123.8003
2800.000000, 99.670, -124.3340
2850.000000, 99.601, -124.8851
2900.000000, 99.520, -125.2701
2950.000000, 99.430, -125.4810
3000.000000, 99.339, -125.5319
3040.000000, 99.272, -125.4746
3070.000000, 99.226, -125.3925
3110.000000, 99.173, -125.2509
3150.000000, 99.129, -125.1017
3200.000000, 99.079, -124.9338
3250.000000, 99.025, -124.7776
3300.000000, 98.968, -124.5927
3350.000000, 98.907, -124.3839
3400.000000, 98.849, -124.1272
3450.000000, 98.798, -123.8368
3500.000000, 98.749, -123.5020
3550.000000, 98.701, -123.1171
3600.000000, 98.658, -122.7464
3650.000000, 98.620, -122.3447
3700.000000, 98.588, -121.9261
3750.000000, 98.559, -121.4981
3820.000000, 98.521, -120.9106
3870.000000, 98.495, -120.5183
3950.000000, 98.457, -119.9348
4000.000000, 98.436, -119.5827
4060.000000, 98.409, -119.2111
4120.000000, 98.380, -118.8698
4180.000000, 98.349, -118.5758
4250.000000, 98.308, -118.3189
4310.000000, 98.265, -118.1410
4370.000000, 98.206, -118.0218
4440.000000, 98.113, -117.8900
4500.000000, 98.019, -117.8438
4550.000000, 97.931, -117.7899
4620.000000, 97.794, -117.7538
4680.000000, 97.665, -117.7031
4750.000000, 97.496, -117.6124
4820.000000, 97.302, -117.4594
4870.000000, 97.148, -117.3095
4940.000000, 96.921, -116.9978
5000.000000, 96.719, -116.6559
5080.000000, 96.438, -116.0555
5150.000000, 96.183, -115.4084
5220.000000, 95.915, -114.5805
5300.000000, 95.598, -113.4721
5380.000000, 95.285, -112.1465
5450.000000, 95.015, -110.8372
5520.000000, 94.748, -109.3745
5600.000000, 94.457, -107.5175
5700.000000, 94.108, -104.9475
5800.000000, 93.784, -102.1354
5900.000000, 93.495, -99.0899
6000.000000, 93.235, -95.8872
6080.000000, 93.056, -93.1692
6150.000000, 92.921, -90.7042
6220.000000, 92.805, -88.2097
6300.000000, 92.704, -85.2682
6400.000000, 92.620, -81.5567
6500.000000, 92.578, -77.7793
6600.000000, 92.587, -73.9897
6700.000000, 92.657, -70.2407
6800.000000, 92.796, -66.5556
6900.000000, 93.019, -62.9780
7000.000000, 93.325, -59.5669
7100.000000, 93.702, -56.4039
7200.000000, 94.154, -53.6111
7300.000000, 94.684, -51.2543
7400.000000, 95.286, -49.5540
7500.000000, 95.954, -48.6694
7620.000000, 96.829, -49.0890
7750.000000, 97.769, -51.7365
7880.000000, 98.472, -56.9388
8000.000000, 98.761, -63.6118
8120.000000, 98.607, -71.0695
8250.000000, 97.932, -78.5387
8380.000000, 96.847, -84.0089
8500.000000, 95.653, -86.8718
8620.000000, 94.406, -87.6741
8750.000000, 93.080, -86.7287
8850.000000, 92.117, -84.9586
9000.000000, 90.788, -81.1057
9120.000000, 89.819, -77.2204
9250.000000, 88.872, -72.4890
9380.000000, 88.029, -67.3140
9500.000000, 87.330, -62.2952
9620.000000, 86.704, -57.0396
9750.000000, 86.106, -51.1684
9880.000000, 85.587, -45.2140
10000.000000, 85.171, -39.6079
10150.000000, 84.732, -32.5964
10300.000000, 84.370, -25.6172
10440.000000, 84.090, -19.1218
10600.000000, 83.839, -11.8370
10750.000000, 83.662, -5.1282
10900.000000, 83.531, 1.3800
11060.000000, 83.445, 8.1373
11200.000000, 83.406, 13.8973
11380.000000, 83.390, 21.0244
11500.000000, 83.395, 25.6458
11720.000000, 83.425, 33.9164
11800.000000, 83.442, 36.9056
12060.000000, 83.530, 46.4732
12200.000000, 83.594, 51.6604
12410.000000, 83.716, 59.5320
12500.000000, 83.788, 62.9431
12650.000000, 83.952, 68.7028
12800.000000, 84.179, 74.4730
13150.000000, 85.050, 87.4641
13200.000000, 85.218, 89.1895
13400.000000, 86.002, 95.3903
13600.000000, 86.940, 100.0923
13800.000000, 87.955, 102.6354
14000.000000, 88.894, 102.7576
14300.000000, 89.792, 99.1963
14500.000000, 89.913, 95.9913
14750.000000, 89.584, 93.2291
15000.000000, 89.007, 93.0679
15250.000000, 88.508, 95.2120
15500.000000, 88.319, 98.2527
15750.000000, 88.457, 100.3890
16000.000000, 88.702, 100.0972
16250.000000, 88.726, 96.9369
16500.000000, 88.222, 91.9382
16750.000000, 87.088, 87.1183
17000.000000, 85.360, 83.4933
17250.000000, 82.797, 83.9834
17500.000000, 79.944, 101.1980
17750.000000, 79.022, 120.8475
18000.000000, 78.761, 130.8199
18250.000000, 78.339, 139.7794
18500.000000, 78.000, 149.5342
18750.000000, 77.965, 159.8719
19000.000000, 78.226, 170.5190
19250.000000, 78.539, -178.7318
19500.000000, 78.684, -168.0056
19750.000000, 78.665, -157.4695
20000.000000, 78.536, -147.3553
20300.000000, 78.363, -136.0520
20600.000000, 78.251, -126.2081
20900.000000, 78.032, -118.2999
21200.000000, 77.488, -112.4941
21400.000000, 76.838, -109.5023
21800.000000, 74.468, -104.3737
22000.000000, 72.355, -101.5301
22400.000000, 65.456, -95.3755
22700.000000, 58.304, -91.2569
23000.000000, 50.013, -91.9815
23300.000000, 41.266, -49.9493
23600.000000, 34.411, -58.6209
24000.000000, 31.557, 70.7078
