* Measurement data measured by REW V5.20.13
* Format: Comma/Tab/Space delimited data
* Dated: Aug 16, 2023 11:03:25 AM
* REW Settings:
*  C-weighting compensation: Off
*  Target level: 75.0 dB
* Note: Format: Comma/Tab/Space delimited data 480 values loaded, 20 Hz to 20,186 Hz log spaced
* Measurement: Preference Target
* Smoothing: 1/24 octave
* Frequency Step: 1/48 octave
* Start Frequency: 20.000 Hz
*
* Freq(Hz) SPL(dB)
20.000000 8.260
20.299999 8.245
20.600000 8.229
20.900000 8.219
21.200001 8.210
21.400000 8.202
21.799999 8.187
22.000000 8.178
22.400000 8.157
22.700001 8.133
23.000000 8.116
23.299999 8.105
23.600000 8.095
24.000000 8.079
24.299999 8.066
24.700001 8.047
25.000000 8.028
25.400000 8.000
25.799999 7.980
26.200001 7.965
26.500000 7.953
26.900000 7.937
27.200001 7.924
27.600000 7.904
28.000000 7.879
28.500000 7.845
29.000000 7.822
29.500000 7.802
30.000000 7.780
30.400000 7.761
30.700001 7.746
31.100000 7.722
31.500000 7.695
32.000000 7.666
32.500000 7.644
33.000000 7.622
33.500000 7.599
34.000000 7.573
34.500000 7.545
35.000000 7.516
35.500000 7.487
36.000000 7.460
36.500000 7.436
37.000000 7.413
37.500000 7.387
38.200001 7.345
38.700001 7.313
39.500000 7.271
40.000000 7.248
40.599998 7.220
41.200001 7.190
41.799999 7.157
42.500000 7.109
43.099998 7.074
43.700001 7.046
44.400002 7.014
45.000000 6.985
45.500000 6.960
46.200001 6.920
46.799999 6.880
47.500000 6.840
48.200001 6.807
48.700001 6.784
49.400002 6.749
50.000000 6.716
50.799999 6.668
51.500000 6.628
52.200001 6.593
53.000000 6.555
53.799999 6.516
54.500000 6.479
55.200001 6.438
56.000000 6.392
57.000000 6.342
58.000000 6.295
59.000000 6.245
60.000000 6.185
60.799999 6.138
61.500000 6.106
62.200001 6.075
63.000000 6.036
64.000000 5.982
65.000000 5.927
66.000000 5.878
67.000000 5.831
68.000000 5.783
69.000000 5.729
70.000000 5.675
71.000000 5.627
72.000000 5.582
73.000000 5.533
74.000000 5.477
75.000000 5.424
76.199997 5.368
77.500000 5.306
78.800003 5.239
80.000000 5.182
81.199997 5.127
82.500000 5.062
83.800003 4.996
85.000000 4.942
86.199997 4.885
87.500000 4.816
88.500000 4.767
90.000000 4.699
91.199997 4.642
92.500000 4.582
93.800003 4.522
95.000000 4.463
96.199997 4.407
97.500000 4.348
98.800003 4.286
100.000000 4.231
101.500000 4.162
103.000000 4.093
104.400002 4.029
106.000000 3.955
107.500000 3.886
109.000000 3.820
110.599998 3.750
112.000000 3.689
113.800003 3.611
115.000000 3.559
117.199997 3.463
118.000000 3.429
120.599998 3.321
122.000000 3.264
124.099998 3.180
125.000000 3.144
126.500000 3.086
128.000000 3.028
131.500000 2.892
132.000000 2.874
134.000000 2.802
136.000000 2.732
138.000000 2.665
140.000000 2.598
143.000000 2.499
145.000000 2.436
147.500000 2.361
150.000000 2.289
152.500000 2.220
155.000000 2.152
157.500000 2.086
160.000000 2.024
162.500000 1.964
165.000000 1.907
167.500000 1.855
170.000000 1.801
172.500000 1.745
175.000000 1.694
177.500000 1.647
180.000000 1.603
182.500000 1.560
185.000000 1.517
187.500000 1.476
190.000000 1.437
192.500000 1.398
195.000000 1.361
197.500000 1.326
200.000000 1.293
203.000000 1.254
206.000000 1.214
209.000000 1.176
212.000000 1.142
214.000000 1.120
218.000000 1.075
220.000000 1.055
224.000000 1.015
227.000000 0.986
230.000000 0.957
233.000000 0.932
236.000000 0.907
240.000000 0.875
243.000000 0.850
247.000000 0.817
250.000000 0.794
254.000000 0.766
258.000000 0.739
262.000000 0.712
265.000000 0.693
269.000000 0.668
272.000000 0.650
276.000000 0.627
280.000000 0.605
285.000000 0.577
290.000000 0.552
295.000000 0.528
300.000000 0.504
304.000000 0.486
307.000000 0.472
311.000000 0.456
315.000000 0.441
320.000000 0.421
325.000000 0.401
330.000000 0.382
335.000000 0.364
340.000000 0.348
345.000000 0.333
350.000000 0.317
355.000000 0.300
360.000000 0.286
365.000000 0.273
370.000000 0.259
375.000000 0.243
382.000000 0.226
387.000000 0.214
395.000000 0.196
400.000000 0.185
406.000000 0.170
412.000000 0.157
418.000000 0.145
425.000000 0.131
431.000000 0.120
437.000000 0.109
444.000000 0.097
450.000000 0.087
455.000000 0.077
462.000000 0.065
468.000000 0.056
475.000000 0.045
482.000000 0.035
487.000000 0.029
494.000000 0.024
500.000000 0.016
508.000000 -0.001
515.000000 -0.010
522.000000 -0.015
530.000000 -0.021
538.000000 -0.037
545.000000 -0.044
552.000000 -0.049
560.000000 -0.056
570.000000 -0.066
580.000000 -0.074
590.000000 -0.080
600.000000 -0.088
608.000000 -0.098
615.000000 -0.104
622.000000 -0.107
630.000000 -0.108
640.000000 -0.114
650.000000 -0.126
660.000000 -0.130
670.000000 -0.131
680.000000 -0.135
690.000000 -0.142
700.000000 -0.145
710.000000 -0.150
720.000000 -0.151
730.000000 -0.155
740.000000 -0.157
750.000000 -0.156
762.000000 -0.163
775.000000 -0.161
788.000000 -0.162
800.000000 -0.160
812.000000 -0.158
825.000000 -0.157
838.000000 -0.156
850.000000 -0.156
862.000000 -0.150
875.000000 -0.145
885.000000 -0.140
900.000000 -0.127
912.000000 -0.120
925.000000 -0.116
938.000000 -0.105
950.000000 -0.088
962.000000 -0.071
975.000000 -0.053
988.000000 -0.029
1000.000000 0.009
1015.000000 0.086
1030.000000 0.169
1044.000000 0.250
1060.000000 0.351
1075.000000 0.449
1090.000000 0.562
1106.000000 0.695
1120.000000 0.816
1138.000000 0.974
1150.000000 1.079
1172.000000 1.272
1180.000000 1.341
1206.000000 1.562
1220.000000 1.678
1241.000000 1.848
1250.000000 1.919
1265.000000 2.035
1280.000000 2.147
1315.000000 2.392
1320.000000 2.425
1340.000000 2.552
1360.000000 2.676
1380.000000 2.794
1400.000000 2.910
1430.000000 3.079
1450.000000 3.175
1475.000000 3.288
1500.000000 3.402
1525.000000 3.514
1550.000000 3.621
1575.000000 3.723
1600.000000 3.825
1625.000000 3.929
1650.000000 4.034
1675.000000 4.140
1700.000000 4.247
1725.000000 4.357
1750.000000 4.462
1775.000000 4.560
1800.000000 4.665
1825.000000 4.788
1850.000000 4.917
1875.000000 5.043
1900.000000 5.167
1925.000000 5.292
1950.000000 5.418
1975.000000 5.544
2000.000000 5.670
2030.000000 5.818
2060.000000 5.961
2090.000000 6.103
2120.000000 6.247
2140.000000 6.346
2180.000000 6.543
2200.000000 6.626
2240.000000 6.782
2270.000000 6.908
2300.000000 7.035
2330.000000 7.159
2360.000000 7.278
2400.000000 7.421
2430.000000 7.520
2470.000000 7.641
2500.000000 7.726
2540.000000 7.834
2580.000000 7.937
2620.000000 8.030
2650.000000 8.088
2690.000000 8.152
2720.000000 8.193
2760.000000 8.239
2800.000000 8.277
2850.000000 8.309
2900.000000 8.329
2950.000000 8.336
3000.000000 8.327
3040.000000 8.308
3070.000000 8.291
3110.000000 8.264
3150.000000 8.231
3200.000000 8.181
3250.000000 8.120
3300.000000 8.055
3350.000000 7.993
3400.000000 7.929
3450.000000 7.852
3500.000000 7.774
3550.000000 7.702
3600.000000 7.621
3650.000000 7.529
3700.000000 7.435
3750.000000 7.339
3820.000000 7.206
3870.000000 7.109
3950.000000 6.953
4000.000000 6.856
4060.000000 6.740
4120.000000 6.624
4180.000000 6.510
4250.000000 6.380
4310.000000 6.270
4370.000000 6.160
4440.000000 6.036
4500.000000 5.931
4550.000000 5.847
4620.000000 5.734
4680.000000 5.642
4750.000000 5.537
4820.000000 5.436
4870.000000 5.368
4940.000000 5.276
5000.000000 5.201
5080.000000 5.105
5150.000000 5.021
5220.000000 4.928
5300.000000 4.822
5380.000000 4.743
5450.000000 4.688
5520.000000 4.623
5600.000000 4.533
5700.000000 4.432
5800.000000 4.340
5900.000000 4.233
6000.000000 4.120
6080.000000 4.030
6150.000000 3.952
6220.000000 3.875
6300.000000 3.790
6400.000000 3.687
6500.000000 3.586
6600.000000 3.488
6700.000000 3.392
6800.000000 3.297
6900.000000 3.206
7000.000000 3.119
7100.000000 3.034
7200.000000 2.949
7300.000000 2.865
7400.000000 2.785
7500.000000 2.706
7620.000000 2.615
7750.000000 2.522
7880.000000 2.432
8000.000000 2.352
8120.000000 2.273
8250.000000 2.187
8380.000000 2.105
8500.000000 2.031
8620.000000 1.958
8750.000000 1.881
8850.000000 1.824
9000.000000 1.740
9120.000000 1.671
9250.000000 1.598
9380.000000 1.526
9500.000000 1.462
9620.000000 1.396
9750.000000 1.322
9880.000000 1.249
10000.000000 1.184
10150.000000 1.106
10300.000000 1.022
10440.000000 0.929
10600.000000 0.821
10750.000000 0.732
10900.000000 0.652
11060.000000 0.576
11200.000000 0.512
11380.000000 0.435
11500.000000 0.392
11720.000000 0.311
11800.000000 0.282
12060.000000 0.184
12200.000000 0.134
12410.000000 0.064
12500.000000 0.036
12650.000000 -0.009
12800.000000 -0.051
13150.000000 -0.139
13200.000000 -0.150
13400.000000 -0.192
13600.000000 -0.230
13800.000000 -0.265
14000.000000 -0.301
14300.000000 -0.350
14500.000000 -0.379
14750.000000 -0.411
15000.000000 -0.441
15250.000000 -0.474
15500.000000 -0.510
15750.000000 -0.548
16000.000000 -0.588
16250.000000 -0.633
16500.000000 -0.681
16750.000000 -0.732
17000.000000 -0.790
17250.000000 -0.854
17500.000000 -0.921
17750.000000 -0.993
18000.000000 -1.071
18250.000000 -1.153
18500.000000 -1.239
18750.000000 -1.329
19000.000000 -1.422
19250.000000 -1.517
19500.000000 -1.615
19750.000000 -1.703
20000.000000 -1.757
