* Measurement data measured by REW V5.20.13
* Source: C:\Users\Raeemax\Downloads\Runatera_v4.2.3 Target.csv
* Format: Comma/Tab/Space delimited data
* Dated: Sep 13, 2023 6:04:28 PM
* REW Settings:
*  C-weighting compensation: Off
*  Target level: 75.0 dB
* Note: Measurement imported from C:\Users\Raeemax\Downloads\Runatera_v4.2.3 Target.csv Format: Comma/Tab/Space delimited data 480 values loaded, 20 Hz to 20,186 Hz log spaced
* Measurement: Runatera v4.2.3 Target
* Smoothing: 1/24 octave
* Frequency Step: 1/48 octave
* Start Frequency: 20.000 Hz
*
* Freq(Hz) SPL(dB)
20.000000 70.342
20.299999 70.341
20.600000 70.339
20.900000 70.337
21.200001 70.336
21.400000 70.334
21.799999 70.330
22.000000 70.327
22.400000 70.322
22.700001 70.317
23.000000 70.311
23.299999 70.305
23.600000 70.299
24.000000 70.289
24.299999 70.281
24.700001 70.270
25.000000 70.261
25.400000 70.249
25.799999 70.243
26.200001 70.244
26.500000 70.242
26.900000 70.230
27.200001 70.217
27.600000 70.198
28.000000 70.185
28.500000 70.178
29.000000 70.165
29.500000 70.153
30.000000 70.146
30.400000 70.139
30.700001 70.132
31.100000 70.124
31.500000 70.118
32.000000 70.114
32.500000 70.111
33.000000 70.106
33.500000 70.102
34.000000 70.101
34.500000 70.100
35.000000 70.097
35.500000 70.095
36.000000 70.093
36.500000 70.091
37.000000 70.091
37.500000 70.093
38.200001 70.091
38.700001 70.084
39.500000 70.066
40.000000 70.053
40.599998 70.037
41.200001 70.020
41.799999 70.003
42.500000 69.987
43.099998 69.974
43.700001 69.954
44.400002 69.927
45.000000 69.909
45.500000 69.891
46.200001 69.855
46.799999 69.816
47.500000 69.772
48.200001 69.727
48.700001 69.690
49.400002 69.635
50.000000 69.590
50.799999 69.527
51.500000 69.457
52.200001 69.385
53.000000 69.317
53.799999 69.251
54.500000 69.208
55.200001 69.163
56.000000 69.107
57.000000 69.031
58.000000 68.941
59.000000 68.848
60.000000 68.760
60.799999 68.678
61.500000 68.617
62.200001 68.543
63.000000 68.466
64.000000 68.387
65.000000 68.290
66.000000 68.193
67.000000 68.099
68.000000 68.012
69.000000 67.926
70.000000 67.836
71.000000 67.746
72.000000 67.656
73.000000 67.563
74.000000 67.470
75.000000 67.379
76.199997 67.273
77.500000 67.161
78.800003 67.049
80.000000 66.948
81.199997 66.849
82.500000 66.744
83.800003 66.642
85.000000 66.549
86.199997 66.458
87.500000 66.365
88.500000 66.296
90.000000 66.194
91.199997 66.113
92.500000 66.027
93.800003 65.944
95.000000 65.869
96.199997 65.795
97.500000 65.717
98.800003 65.643
100.000000 65.578
101.500000 65.497
103.000000 65.415
104.400002 65.340
106.000000 65.255
107.500000 65.180
109.000000 65.107
110.599998 65.031
112.000000 64.965
113.800003 64.883
115.000000 64.830
117.199997 64.736
118.000000 64.702
120.599998 64.594
122.000000 64.537
124.099998 64.454
125.000000 64.420
126.500000 64.365
128.000000 64.312
131.500000 64.192
132.000000 64.175
134.000000 64.106
136.000000 64.041
138.000000 63.980
140.000000 63.921
143.000000 63.831
145.000000 63.771
147.500000 63.698
150.000000 63.632
152.500000 63.568
155.000000 63.503
157.500000 63.441
160.000000 63.382
162.500000 63.323
165.000000 63.264
167.500000 63.205
170.000000 63.149
172.500000 63.096
175.000000 63.044
177.500000 62.992
180.000000 62.939
182.500000 62.888
185.000000 62.838
187.500000 62.786
190.000000 62.736
192.500000 62.688
195.000000 62.639
197.500000 62.593
200.000000 62.551
203.000000 62.504
206.000000 62.456
209.000000 62.407
212.000000 62.360
214.000000 62.329
218.000000 62.272
220.000000 62.244
224.000000 62.191
227.000000 62.153
230.000000 62.115
233.000000 62.080
236.000000 62.047
240.000000 62.006
243.000000 61.977
247.000000 61.941
250.000000 61.913
254.000000 61.875
258.000000 61.837
262.000000 61.803
265.000000 61.780
269.000000 61.753
272.000000 61.733
276.000000 61.709
280.000000 61.686
285.000000 61.659
290.000000 61.636
295.000000 61.612
300.000000 61.587
304.000000 61.570
307.000000 61.556
311.000000 61.539
315.000000 61.525
320.000000 61.509
325.000000 61.493
330.000000 61.478
335.000000 61.467
340.000000 61.458
345.000000 61.449
350.000000 61.440
355.000000 61.432
360.000000 61.423
365.000000 61.414
370.000000 61.406
375.000000 61.400
382.000000 61.396
387.000000 61.396
395.000000 61.395
400.000000 61.392
406.000000 61.392
412.000000 61.394
418.000000 61.391
425.000000 61.381
431.000000 61.374
437.000000 61.369
444.000000 61.361
450.000000 61.349
455.000000 61.337
462.000000 61.320
468.000000 61.307
475.000000 61.288
482.000000 61.264
487.000000 61.243
494.000000 61.212
500.000000 61.187
508.000000 61.155
515.000000 61.124
522.000000 61.090
530.000000 61.051
538.000000 61.012
545.000000 60.977
552.000000 60.940
560.000000 60.895
570.000000 60.841
580.000000 60.782
590.000000 60.725
600.000000 60.675
608.000000 60.632
615.000000 60.587
622.000000 60.541
630.000000 60.500
640.000000 60.453
650.000000 60.399
660.000000 60.335
670.000000 60.279
680.000000 60.227
690.000000 60.172
700.000000 60.117
710.000000 60.067
720.000000 60.018
730.000000 59.966
740.000000 59.918
750.000000 59.874
762.000000 59.826
775.000000 59.788
788.000000 59.761
800.000000 59.741
812.000000 59.726
825.000000 59.713
838.000000 59.704
850.000000 59.700
862.000000 59.702
875.000000 59.718
885.000000 59.737
900.000000 59.771
912.000000 59.801
925.000000 59.837
938.000000 59.875
950.000000 59.913
962.000000 59.955
975.000000 60.002
988.000000 60.054
1000.000000 60.106
1015.000000 60.174
1030.000000 60.245
1044.000000 60.314
1060.000000 60.399
1075.000000 60.482
1090.000000 60.566
1106.000000 60.655
1120.000000 60.735
1138.000000 60.840
1150.000000 60.910
1172.000000 61.035
1180.000000 61.080
1206.000000 61.219
1220.000000 61.292
1241.000000 61.401
1250.000000 61.447
1265.000000 61.522
1280.000000 61.597
1315.000000 61.767
1320.000000 61.791
1340.000000 61.885
1360.000000 61.972
1380.000000 62.051
1400.000000 62.128
1430.000000 62.249
1450.000000 62.341
1475.000000 62.466
1500.000000 62.588
1525.000000 62.708
1550.000000 62.836
1575.000000 62.967
1600.000000 63.091
1625.000000 63.210
1650.000000 63.336
1675.000000 63.464
1700.000000 63.589
1725.000000 63.713
1750.000000 63.838
1775.000000 63.964
1800.000000 64.092
1825.000000 64.225
1850.000000 64.364
1875.000000 64.507
1900.000000 64.654
1925.000000 64.804
1950.000000 64.953
1975.000000 65.104
2000.000000 65.260
2030.000000 65.454
2060.000000 65.653
2090.000000 65.857
2120.000000 66.066
2140.000000 66.204
2180.000000 66.475
2200.000000 66.611
2240.000000 66.879
2270.000000 67.081
2300.000000 67.280
2330.000000 67.469
2360.000000 67.651
2400.000000 67.896
2430.000000 68.078
2470.000000 68.303
2500.000000 68.461
2540.000000 68.660
2580.000000 68.845
2620.000000 69.022
2650.000000 69.143
2690.000000 69.277
2720.000000 69.360
2760.000000 69.450
2800.000000 69.518
2850.000000 69.579
2900.000000 69.613
2950.000000 69.633
3000.000000 69.651
3040.000000 69.655
3070.000000 69.647
3110.000000 69.632
3150.000000 69.622
3200.000000 69.589
3250.000000 69.533
3300.000000 69.493
3350.000000 69.424
3400.000000 69.334
3450.000000 69.262
3500.000000 69.176
3550.000000 69.056
3600.000000 68.942
3650.000000 68.850
3700.000000 68.728
3750.000000 68.604
3820.000000 68.444
3870.000000 68.333
3950.000000 68.144
4000.000000 68.041
4060.000000 67.895
4120.000000 67.767
4180.000000 67.627
4250.000000 67.494
4310.000000 67.383
4370.000000 67.274
4440.000000 67.135
4500.000000 67.013
4550.000000 66.891
4620.000000 66.737
4680.000000 66.627
4750.000000 66.479
4820.000000 66.306
4870.000000 66.199
4940.000000 66.080
5000.000000 65.958
5080.000000 65.771
5150.000000 65.606
5220.000000 65.430
5300.000000 65.253
5380.000000 65.075
5450.000000 64.912
5520.000000 64.749
5600.000000 64.560
5700.000000 64.319
5800.000000 64.076
5900.000000 63.841
6000.000000 63.622
6080.000000 63.464
6150.000000 63.348
6220.000000 63.258
6300.000000 63.188
6400.000000 63.129
6500.000000 63.094
6600.000000 63.099
6700.000000 63.149
6800.000000 63.232
6900.000000 63.356
7000.000000 63.530
7100.000000 63.782
7200.000000 64.155
7300.000000 64.668
7400.000000 65.269
7500.000000 65.954
7620.000000 66.862
7750.000000 67.806
7880.000000 68.374
8000.000000 68.565
8120.000000 68.482
8250.000000 67.956
8380.000000 67.135
8500.000000 66.359
8620.000000 65.602
8750.000000 64.817
8850.000000 64.256
9000.000000 63.449
9120.000000 62.884
9250.000000 62.311
9380.000000 61.782
9500.000000 61.310
9620.000000 60.843
9750.000000 60.355
9880.000000 59.890
10000.000000 59.480
10150.000000 58.981
10300.000000 58.493
10440.000000 58.043
10600.000000 57.536
10750.000000 57.074
10900.000000 56.633
11060.000000 56.188
11200.000000 55.821
11380.000000 55.435
11500.000000 55.262
11720.000000 55.085
11800.000000 55.065
12060.000000 54.907
12200.000000 54.728
12410.000000 54.501
12500.000000 54.426
12650.000000 54.308
12800.000000 54.202
13150.000000 54.029
13200.000000 54.008
13400.000000 53.929
13600.000000 53.869
13800.000000 53.908
14000.000000 54.121
14300.000000 54.748
14500.000000 55.291
14750.000000 56.013
15000.000000 56.707
15250.000000 57.333
15500.000000 57.875
15750.000000 58.328
16000.000000 58.707
16250.000000 59.019
16500.000000 59.266
16750.000000 59.462
17000.000000 59.614
17250.000000 59.728
17500.000000 59.809
17750.000000 59.857
18000.000000 59.875
18250.000000 59.883
18500.000000 59.900
18750.000000 59.937
19000.000000 59.974
19250.000000 59.997
19500.000000 60.018
19750.000000 60.041
20000.000000 60.060
