* Measurement data measured by REW V5.31.1
* Source: Headset (DS by VECLAN.COM), MICROPHONE (Master Volume), L, volume: 0.720. Timing signal peak level -14.7 dBFS, measurement signal peak level -14.6 dBFS
* Format: 2M Log Swept Sine, 1 sweep at -12.0 dBFS using an acoustic timing reference
* Dated: Jul 16, 2024 9:30:06 PM
* REW Settings:
*  C-weighting compensation: Off
*  Target level: 85.0 dB
* Note: ; Delay -0.0691 ms (-24 mm, -0.93 in) using estimated IR delay relative to Acoustic reference played from HEADPHONE R with no timing offset
* Measurement: Pop R
* Smoothing: 1/24 octave
* Frequency Step: 1/48 octave
* Start Frequency: 1.000 Hz
*
* Freq(Hz), SPL(dB), Phase(degrees)
1.000000, 44.431, 175.9772
1.015000, 44.618, 172.2877
1.030000, 44.814, 168.8869
1.044000, 45.005, 165.8864
1.060000, 45.232, 162.5763
1.075000, 45.452, 159.5189
1.090000, 45.681, 156.4466
1.106000, 45.938, 153.1057
1.120000, 46.183, 150.1318
1.138000, 46.532, 146.3086
1.150000, 46.783, 143.8004
1.172000, 47.279, 139.3535
1.180000, 47.470, 137.7929
1.206000, 48.122, 132.9857
1.220000, 48.491, 130.5680
1.241000, 49.061, 127.1560
1.250000, 49.311, 125.7671
1.265000, 49.731, 123.5408
1.280000, 50.156, 121.4136
1.315000, 51.151, 116.7586
1.320000, 51.292, 116.1215
1.340000, 51.852, 113.6224
1.360000, 52.398, 111.1821
1.380000, 52.926, 108.7336
1.400000, 53.429, 106.2745
1.430000, 54.128, 102.5432
1.450000, 54.549, 100.0005
1.475000, 55.022, 96.7732
1.500000, 55.451, 93.6029
1.525000, 55.844, 90.5730
1.550000, 56.207, 87.7074
1.575000, 56.543, 84.9856
1.600000, 56.857, 82.3793
1.625000, 57.152, 79.9102
1.650000, 57.433, 77.5568
1.675000, 57.702, 75.2970
1.700000, 57.965, 73.1088
1.725000, 58.226, 70.9719
1.750000, 58.487, 68.8675
1.775000, 58.754, 66.7623
1.800000, 59.030, 64.6267
1.825000, 59.317, 62.4923
1.850000, 59.614, 60.3929
1.875000, 59.913, 58.3845
1.900000, 60.212, 56.4867
1.925000, 60.511, 54.6970
1.950000, 60.809, 53.0075
1.975000, 61.105, 51.3907
2.000000, 61.399, 49.8188
2.030000, 61.749, 48.0196
2.060000, 62.095, 46.2946
2.090000, 62.436, 44.6250
2.120000, 62.772, 42.9934
2.140000, 62.992, 41.9193
2.180000, 63.424, 39.7680
2.200000, 63.635, 38.6837
2.240000, 64.048, 36.5843
2.270000, 64.352, 35.0960
2.300000, 64.650, 33.6826
2.330000, 64.943, 32.3381
2.360000, 65.231, 31.0547
2.400000, 65.607, 29.3761
2.430000, 65.884, 28.1602
2.470000, 66.245, 26.5898
2.500000, 66.511, 25.4397
2.540000, 66.859, 23.9312
2.580000, 67.199, 22.4317
2.620000, 67.530, 20.9462
2.650000, 67.772, 19.8760
2.690000, 68.088, 18.5068
2.720000, 68.320, 17.5209
2.760000, 68.622, 16.2574
2.800000, 68.917, 15.0038
2.850000, 69.276, 13.4884
2.900000, 69.627, 12.0227
2.950000, 69.967, 10.5977
3.000000, 70.297, 9.1910
3.040000, 70.553, 8.0962
3.070000, 70.740, 7.3004
3.110000, 70.985, 6.2723
3.150000, 71.224, 5.2799
3.200000, 71.515, 4.0551
3.250000, 71.800, 2.8611
3.300000, 72.079, 1.7064
3.350000, 72.351, 0.5894
3.400000, 72.615, -0.5222
3.450000, 72.871, -1.6070
3.500000, 73.121, -2.6506
3.550000, 73.365, -3.6533
3.600000, 73.604, -4.6437
3.650000, 73.839, -5.6094
3.700000, 74.068, -6.5419
3.750000, 74.292, -7.4429
3.820000, 74.596, -8.6883
3.870000, 74.808, -9.5499
3.950000, 75.139, -10.8694
4.000000, 75.342, -11.6810
4.060000, 75.583, -12.6321
4.120000, 75.820, -13.5453
4.180000, 76.051, -14.4309
4.250000, 76.316, -15.4597
4.310000, 76.539, -16.3127
4.370000, 76.759, -17.1473
4.440000, 77.012, -18.1257
4.500000, 77.226, -18.9366
4.550000, 77.401, -19.5935
4.620000, 77.643, -20.5193
4.680000, 77.848, -21.3052
4.750000, 78.084, -22.2103
4.820000, 78.318, -23.1234
4.870000, 78.483, -23.7673
4.940000, 78.711, -24.6523
5.000000, 78.903, -25.4158
5.080000, 79.155, -26.4404
5.150000, 79.372, -27.3345
5.220000, 79.584, -28.2452
5.300000, 79.822, -29.2832
5.380000, 80.055, -30.3138
5.450000, 80.253, -31.2304
5.520000, 80.447, -32.1440
5.600000, 80.663, -33.1981
5.700000, 80.924, -34.5245
5.800000, 81.175, -35.8394
5.900000, 81.415, -37.1570
6.000000, 81.645, -38.4764
6.080000, 81.820, -39.5359
6.150000, 81.968, -40.4419
6.220000, 82.111, -41.3433
6.300000, 82.268, -42.3593
6.400000, 82.455, -43.6172
6.500000, 82.631, -44.8528
6.600000, 82.799, -46.0387
6.700000, 82.958, -47.1943
6.800000, 83.109, -48.3148
6.900000, 83.253, -49.3951
7.000000, 83.392, -50.4167
7.100000, 83.526, -51.3970
7.200000, 83.655, -52.3324
7.300000, 83.782, -53.2262
7.400000, 83.907, -54.0696
7.500000, 84.031, -54.8781
7.620000, 84.177, -55.7988
7.750000, 84.338, -56.7422
7.880000, 84.500, -57.6397
8.000000, 84.651, -58.4341
8.120000, 84.804, -59.2146
8.250000, 84.972, -60.0427
8.380000, 85.141, -60.8618
8.500000, 85.298, -61.6254
8.620000, 85.454, -62.3899
8.750000, 85.623, -63.2227
8.850000, 85.750, -63.8701
9.000000, 85.938, -64.8455
9.120000, 86.085, -65.6294
9.250000, 86.240, -66.4817
9.380000, 86.390, -67.3311
9.500000, 86.525, -68.1100
9.620000, 86.656, -68.8744
9.750000, 86.792, -69.6893
9.880000, 86.918, -70.4898
10.000000, 87.022, -71.2051
10.150000, 87.139, -72.1091
10.300000, 87.246, -72.9757
10.440000, 87.339, -73.7524
10.600000, 87.442, -74.6077
10.750000, 87.539, -75.3821
10.900000, 87.636, -76.1339
11.060000, 87.741, -76.9434
11.200000, 87.833, -77.6766
11.380000, 87.948, -78.6012
11.500000, 88.022, -79.2075
11.720000, 88.154, -80.2942
11.800000, 88.200, -80.6805
12.060000, 88.351, -81.9238
12.200000, 88.432, -82.6089
12.410000, 88.551, -83.5990
12.500000, 88.601, -84.0085
12.650000, 88.681, -84.6718
12.800000, 88.759, -85.3125
13.150000, 88.939, -86.7817
13.200000, 88.965, -86.9941
13.400000, 89.068, -87.8277
13.600000, 89.170, -88.6382
13.800000, 89.270, -89.4283
14.000000, 89.367, -90.2025
14.300000, 89.508, -91.4013
14.500000, 89.597, -92.1692
14.750000, 89.703, -93.0854
15.000000, 89.808, -93.9557
15.250000, 89.919, -94.8397
15.500000, 90.031, -95.6943
15.750000, 90.142, -96.5295
16.000000, 90.252, -97.3583
16.250000, 90.359, -98.2300
16.500000, 90.461, -99.0961
16.750000, 90.557, -99.9448
17.000000, 90.648, -100.7646
17.250000, 90.735, -101.5703
17.500000, 90.821, -102.3268
17.750000, 90.907, -103.0336
18.000000, 90.996, -103.7058
18.250000, 91.091, -104.3834
18.500000, 91.189, -105.0675
18.750000, 91.289, -105.7720
19.000000, 91.390, -106.5055
19.250000, 91.486, -107.2899
19.500000, 91.576, -108.0861
19.750000, 91.657, -108.8745
20.000000, 91.730, -109.6343
20.299999, 91.809, -110.5171
20.600000, 91.885, -111.3250
20.900000, 91.962, -112.0649
21.200001, 92.043, -112.7783
21.400000, 92.099, -113.2485
21.799999, 92.214, -114.1885
22.000000, 92.272, -114.6676
22.400000, 92.383, -115.6760
22.700001, 92.461, -116.4377
23.000000, 92.533, -117.1925
23.299999, 92.600, -117.9482
23.600000, 92.662, -118.6770
24.000000, 92.741, -119.5959
24.299999, 92.799, -120.2622
24.700001, 92.876, -121.1051
25.000000, 92.936, -121.7142
25.400000, 93.019, -122.5416
25.799999, 93.101, -123.3812
26.200001, 93.178, -124.2455
26.500000, 93.231, -124.8998
26.900000, 93.295, -125.7474
27.200001, 93.340, -126.3595
27.600000, 93.398, -127.1366
28.000000, 93.457, -127.8776
28.500000, 93.534, -128.8029
29.000000, 93.611, -129.7371
29.500000, 93.681, -130.6892
30.000000, 93.744, -131.6179
30.400000, 93.790, -132.3386
30.700001, 93.824, -132.8569
31.100000, 93.870, -133.5325
31.500000, 93.918, -134.2189
32.000000, 93.977, -135.0938
32.500000, 94.028, -135.9896
33.000000, 94.068, -136.8441
33.500000, 94.104, -137.6370
34.000000, 94.146, -138.3766
34.500000, 94.193, -139.1156
35.000000, 94.238, -139.8594
35.500000, 94.278, -140.5928
36.000000, 94.318, -141.3017
36.500000, 94.357, -142.0129
37.000000, 94.389, -142.7269
37.500000, 94.413, -143.4031
38.200001, 94.447, -144.2026
38.700001, 94.488, -144.7521
39.500000, 94.566, -145.8504
40.000000, 94.595, -146.6421
40.599998, 94.604, -147.5292
41.200001, 94.612, -148.2761
41.799999, 94.631, -148.9807
42.500000, 94.656, -149.8303
43.099998, 94.675, -150.5321
43.700001, 94.701, -151.2107
44.400002, 94.734, -152.0442
45.000000, 94.755, -152.7756
45.500000, 94.766, -153.3505
46.200001, 94.786, -154.1029
46.799999, 94.803, -154.7511
47.500000, 94.817, -155.4905
48.200001, 94.829, -156.1613
48.700001, 94.843, -156.6394
49.400002, 94.861, -157.3799
50.000000, 94.862, -158.0528
50.799999, 94.843, -158.8565
51.500000, 94.827, -159.4191
52.200001, 94.828, -159.9337
53.000000, 94.842, -160.5853
53.799999, 94.855, -161.3112
54.500000, 94.861, -161.9483
55.200001, 94.863, -162.5552
56.000000, 94.866, -163.1384
57.000000, 94.904, -163.8067
58.000000, 94.945, -164.8407
59.000000, 94.906, -165.8559
60.000000, 94.860, -166.4501
60.799999, 94.843, -166.9154
61.500000, 94.823, -167.3557
62.200001, 94.804, -167.7728
63.000000, 94.789, -168.2793
64.000000, 94.765, -168.9753
65.000000, 94.740, -169.6196
66.000000, 94.729, -170.2411
67.000000, 94.721, -170.8995
68.000000, 94.705, -171.5331
69.000000, 94.682, -172.0786
70.000000, 94.660, -172.5457
71.000000, 94.644, -173.0231
72.000000, 94.623, -173.6045
73.000000, 94.585, -174.2036
74.000000, 94.545, -174.7358
75.000000, 94.517, -175.2966
76.199997, 94.473, -175.9896
77.500000, 94.433, -176.5035
78.800003, 94.422, -176.9584
80.000000, 94.415, -177.4614
81.199997, 94.389, -178.0509
82.500000, 94.330, -178.6288
83.800003, 94.277, -179.0925
85.000000, 94.243, -179.5864
86.199997, 94.214, 179.9127
87.500000, 94.194, 179.4476
88.500000, 94.193, 179.1708
90.000000, 94.200, 178.4670
91.199997, 94.122, 177.8580
92.500000, 94.022, 177.7209
93.800003, 93.960, 177.5515
95.000000, 93.910, 177.2385
96.199997, 93.866, 176.8611
97.500000, 93.833, 176.4049
98.800003, 93.802, 175.9472
100.000000, 93.777, 175.5953
101.500000, 93.730, 175.1438
103.000000, 93.662, 174.8511
104.400002, 93.605, 174.6099
106.000000, 93.549, 174.2646
107.500000, 93.501, 173.9167
109.000000, 93.461, 173.5978
110.599998, 93.419, 173.2751
112.000000, 93.373, 172.9998
113.800003, 93.303, 172.6618
115.000000, 93.258, 172.4201
117.199997, 93.193, 171.9611
118.000000, 93.178, 171.7732
120.599998, 93.100, 171.1768
122.000000, 93.054, 171.1346
124.099998, 93.000, 171.0159
125.000000, 92.971, 170.9149
126.500000, 92.917, 170.7416
128.000000, 92.862, 170.5728
131.500000, 92.756, 170.2485
132.000000, 92.742, 170.1891
134.000000, 92.680, 169.9202
136.000000, 92.611, 169.6683
138.000000, 92.552, 169.5316
140.000000, 92.516, 169.4062
143.000000, 92.445, 169.1533
145.000000, 92.388, 169.0240
147.500000, 92.328, 168.7827
150.000000, 92.268, 168.6049
152.500000, 92.209, 168.5334
155.000000, 92.136, 168.3579
157.500000, 92.070, 168.2192
160.000000, 92.044, 168.1400
162.500000, 92.011, 167.9905
165.000000, 91.920, 168.0101
167.500000, 91.823, 168.1192
170.000000, 91.737, 168.1462
172.500000, 91.650, 168.0803
175.000000, 91.579, 168.1323
177.500000, 91.551, 168.0968
180.000000, 91.516, 167.9861
182.500000, 91.451, 167.9531
185.000000, 91.369, 168.0233
187.500000, 91.295, 168.1816
190.000000, 91.233, 168.4048
192.500000, 91.185, 168.7510
195.000000, 91.165, 169.0455
197.500000, 91.161, 169.1165
200.000000, 91.153, 169.0068
203.000000, 91.126, 168.8655
206.000000, 91.077, 168.7744
209.000000, 91.012, 168.7217
212.000000, 90.943, 168.6707
214.000000, 90.898, 168.6914
218.000000, 90.820, 168.7449
220.000000, 90.783, 168.7316
224.000000, 90.705, 168.8315
227.000000, 90.656, 169.0483
230.000000, 90.612, 169.2449
233.000000, 90.559, 169.4083
236.000000, 90.510, 169.6001
240.000000, 90.464, 169.7260
243.000000, 90.411, 169.7714
247.000000, 90.334, 169.9194
250.000000, 90.288, 170.0684
254.000000, 90.231, 170.3567
258.000000, 90.172, 170.5866
262.000000, 90.119, 170.7368
265.000000, 90.083, 170.8612
269.000000, 90.034, 171.0696
272.000000, 89.996, 171.2518
276.000000, 89.947, 171.4857
280.000000, 89.901, 171.6987
285.000000, 89.847, 172.0308
290.000000, 89.797, 172.3607
295.000000, 89.742, 172.6284
300.000000, 89.692, 172.9334
304.000000, 89.658, 173.1918
307.000000, 89.632, 173.3803
311.000000, 89.595, 173.6167
315.000000, 89.560, 173.8866
320.000000, 89.520, 174.2343
325.000000, 89.481, 174.5978
330.000000, 89.439, 174.9468
335.000000, 89.399, 175.2676
340.000000, 89.361, 175.5966
345.000000, 89.321, 175.9165
350.000000, 89.282, 176.2639
355.000000, 89.247, 176.6224
360.000000, 89.213, 176.9758
365.000000, 89.177, 177.3346
370.000000, 89.142, 177.7010
375.000000, 89.109, 178.0595
382.000000, 89.063, 178.5579
387.000000, 89.031, 178.9088
395.000000, 88.981, 179.4722
400.000000, 88.951, 179.8260
406.000000, 88.915, -179.7645
412.000000, 88.883, -179.3221
418.000000, 88.852, -178.8729
425.000000, 88.817, -178.3434
431.000000, 88.788, -177.8890
437.000000, 88.759, -177.4526
444.000000, 88.727, -176.9347
450.000000, 88.701, -176.5040
455.000000, 88.680, -176.1357
462.000000, 88.652, -175.6212
468.000000, 88.628, -175.1705
475.000000, 88.601, -174.6695
482.000000, 88.577, -174.1592
487.000000, 88.562, -173.7976
494.000000, 88.543, -173.2868
500.000000, 88.527, -172.8462
508.000000, 88.507, -172.2527
515.000000, 88.490, -171.7358
522.000000, 88.474, -171.2185
530.000000, 88.458, -170.6394
538.000000, 88.443, -170.0591
545.000000, 88.432, -169.5383
552.000000, 88.421, -169.0091
560.000000, 88.411, -168.4150
570.000000, 88.399, -167.6745
580.000000, 88.389, -166.9316
590.000000, 88.380, -166.1901
600.000000, 88.372, -165.4393
608.000000, 88.366, -164.8386
615.000000, 88.361, -164.3097
622.000000, 88.357, -163.7880
630.000000, 88.351, -163.1967
640.000000, 88.345, -162.4462
650.000000, 88.343, -161.6841
660.000000, 88.342, -160.9293
670.000000, 88.343, -160.1697
680.000000, 88.346, -159.4122
690.000000, 88.352, -158.6376
700.000000, 88.360, -157.8813
710.000000, 88.370, -157.1311
720.000000, 88.383, -156.3677
730.000000, 88.398, -155.6092
740.000000, 88.415, -154.8491
750.000000, 88.434, -154.0842
762.000000, 88.459, -153.1778
775.000000, 88.488, -152.1920
788.000000, 88.520, -151.2120
800.000000, 88.554, -150.3215
812.000000, 88.590, -149.4150
825.000000, 88.633, -148.4535
838.000000, 88.682, -147.5132
850.000000, 88.730, -146.6465
862.000000, 88.780, -145.7927
875.000000, 88.838, -144.8830
885.000000, 88.885, -144.1866
900.000000, 88.960, -143.1818
912.000000, 89.023, -142.3969
925.000000, 89.095, -141.5602
938.000000, 89.170, -140.7567
950.000000, 89.241, -140.0294
962.000000, 89.313, -139.3475
975.000000, 89.392, -138.6178
988.000000, 89.470, -137.9232
1000.000000, 89.545, -137.3016
1015.000000, 89.639, -136.5642
1030.000000, 89.733, -135.8751
1044.000000, 89.822, -135.2649
1060.000000, 89.922, -134.5933
1075.000000, 90.016, -133.9979
1090.000000, 90.114, -133.4501
1106.000000, 90.227, -132.8964
1120.000000, 90.328, -132.4391
1138.000000, 90.454, -131.8807
1150.000000, 90.536, -131.5272
1172.000000, 90.683, -130.9099
1180.000000, 90.735, -130.7029
1206.000000, 90.904, -130.0315
1220.000000, 90.999, -129.6858
1241.000000, 91.142, -129.2204
1250.000000, 91.201, -129.0150
1265.000000, 91.294, -128.6768
1280.000000, 91.384, -128.3492
1315.000000, 91.583, -127.5942
1320.000000, 91.610, -127.4879
1340.000000, 91.711, -127.0782
1360.000000, 91.790, -126.6547
1380.000000, 91.865, -126.2419
1400.000000, 91.953, -125.8215
1430.000000, 92.088, -125.1946
1450.000000, 92.177, -124.7780
1475.000000, 92.285, -124.2400
1500.000000, 92.390, -123.6925
1525.000000, 92.492, -123.1456
1550.000000, 92.588, -122.5399
1575.000000, 92.684, -121.9045
1600.000000, 92.789, -121.2175
1625.000000, 92.909, -120.5261
1650.000000, 93.043, -119.9106
1675.000000, 93.181, -119.4223
1700.000000, 93.312, -119.0357
1725.000000, 93.433, -118.7225
1750.000000, 93.543, -118.3985
1775.000000, 93.647, -118.1010
1800.000000, 93.746, -117.7850
1825.000000, 93.844, -117.4528
1850.000000, 93.941, -117.1310
1875.000000, 94.037, -116.8154
1900.000000, 94.133, -116.4998
1925.000000, 94.227, -116.1990
1950.000000, 94.321, -115.9017
1975.000000, 94.413, -115.6290
2000.000000, 94.504, -115.3682
2030.000000, 94.612, -115.0751
2060.000000, 94.718, -114.8025
2090.000000, 94.821, -114.5317
2120.000000, 94.922, -114.2996
2140.000000, 94.988, -114.1705
2180.000000, 95.116, -113.8839
2200.000000, 95.177, -113.7596
2240.000000, 95.290, -113.5118
2270.000000, 95.372, -113.3145
2300.000000, 95.452, -113.1115
2330.000000, 95.534, -112.8988
2360.000000, 95.620, -112.6877
2400.000000, 95.740, -112.5087
2430.000000, 95.830, -112.4531
2470.000000, 95.936, -112.4681
2500.000000, 96.003, -112.5322
2540.000000, 96.075, -112.6183
2580.000000, 96.130, -112.6823
2620.000000, 96.173, -112.7130
2650.000000, 96.199, -112.7150
2690.000000, 96.227, -112.6509
2720.000000, 96.242, -112.6028
2760.000000, 96.256, -112.4976
2800.000000, 96.260, -112.3475
2850.000000, 96.253, -112.0589
2900.000000, 96.241, -111.5869
2950.000000, 96.243, -110.9293
3000.000000, 96.277, -110.2097
3040.000000, 96.324, -109.6967
3070.000000, 96.364, -109.3923
3110.000000, 96.414, -109.0706
3150.000000, 96.456, -108.7869
3200.000000, 96.498, -108.4296
3250.000000, 96.541, -108.0471
3300.000000, 96.593, -107.6765
3350.000000, 96.647, -107.4454
3400.000000, 96.691, -107.3204
3450.000000, 96.719, -107.2579
3500.000000, 96.731, -107.1955
3550.000000, 96.728, -107.0596
3600.000000, 96.713, -106.8890
3650.000000, 96.693, -106.6330
3700.000000, 96.669, -106.3076
3750.000000, 96.642, -105.9246
3820.000000, 96.602, -105.3190
3870.000000, 96.568, -104.8484
3950.000000, 96.506, -103.9718
4000.000000, 96.471, -103.3207
4060.000000, 96.438, -102.4882
4120.000000, 96.421, -101.6101
4180.000000, 96.419, -100.7626
4250.000000, 96.425, -99.8896
4310.000000, 96.428, -99.2063
4370.000000, 96.418, -98.5872
4440.000000, 96.393, -97.8513
4500.000000, 96.368, -97.2496
4550.000000, 96.347, -96.7227
4620.000000, 96.318, -96.0424
4680.000000, 96.293, -95.4835
4750.000000, 96.259, -94.8868
4820.000000, 96.217, -94.3340
4870.000000, 96.182, -93.9701
4940.000000, 96.121, -93.4465
5000.000000, 96.060, -93.0065
5080.000000, 95.965, -92.4043
5150.000000, 95.870, -91.8636
5220.000000, 95.765, -91.2549
5300.000000, 95.634, -90.5304
5380.000000, 95.492, -89.6976
5450.000000, 95.362, -88.9175
5520.000000, 95.229, -88.0651
5600.000000, 95.071, -86.9720
5700.000000, 94.870, -85.4525
5800.000000, 94.671, -83.7582
5900.000000, 94.478, -81.8607
6000.000000, 94.296, -79.8435
6080.000000, 94.161, -78.0737
6150.000000, 94.055, -76.4380
6220.000000, 93.961, -74.7715
6300.000000, 93.868, -72.7546
6400.000000, 93.776, -70.1728
6500.000000, 93.717, -67.5078
6600.000000, 93.692, -64.8055
6700.000000, 93.703, -62.1113
6800.000000, 93.758, -59.4435
6900.000000, 93.874, -56.8286
7000.000000, 94.050, -54.2985
7100.000000, 94.275, -51.8986
7200.000000, 94.547, -49.6958
7300.000000, 94.869, -47.6918
7400.000000, 95.245, -46.0402
7500.000000, 95.681, -44.8270
7620.000000, 96.298, -44.2913
7750.000000, 97.038, -45.2915
7880.000000, 97.659, -48.4795
8000.000000, 97.990, -53.3947
8120.000000, 97.963, -59.5522
8250.000000, 97.457, -66.2867
8380.000000, 96.520, -71.5660
8500.000000, 95.417, -74.4606
8620.000000, 94.223, -75.3412
8750.000000, 92.929, -74.4713
8850.000000, 91.972, -72.7378
9000.000000, 90.626, -68.9008
9120.000000, 89.635, -64.9922
9250.000000, 88.646, -60.1433
9380.000000, 87.738, -54.7137
9500.000000, 86.967, -49.3147
9620.000000, 86.257, -43.5151
9750.000000, 85.559, -36.8480
9880.000000, 84.932, -29.8452
10000.000000, 84.409, -22.9956
10150.000000, 83.827, -13.9430
10300.000000, 83.334, -4.2017
10440.000000, 82.978, 5.7244
10600.000000, 82.759, 18.2192
10750.000000, 82.853, 31.1284
10900.000000, 83.387, 44.5453
11060.000000, 84.523, 57.7625
11200.000000, 85.877, 66.6707
11380.000000, 87.724, 73.3841
11500.000000, 88.831, 75.5085
11720.000000, 90.477, 77.2237
11800.000000, 90.994, 77.7478
12060.000000, 92.726, 79.6326
12200.000000, 93.858, 80.1212
12410.000000, 95.920, 77.4720
12500.000000, 96.858, 74.1421
12650.000000, 98.208, 64.8806
12800.000000, 98.887, 51.5642
13150.000000, 96.692, 21.7404
13200.000000, 96.063, 19.2192
13400.000000, 93.350, 14.3927
13600.000000, 90.844, 16.1216
13800.000000, 88.804, 21.5093
14000.000000, 87.211, 28.7688
14300.000000, 85.460, 41.2388
14500.000000, 84.624, 50.0953
14750.000000, 83.888, 61.3199
15000.000000, 83.459, 72.4607
15250.000000, 83.331, 83.3462
15500.000000, 83.550, 93.7275
15750.000000, 84.151, 103.1490
16000.000000, 85.126, 110.7455
16250.000000, 86.413, 115.0869
16500.000000, 87.778, 114.5387
16750.000000, 88.788, 108.5449
17000.000000, 88.949, 98.6779
17250.000000, 88.058, 88.7944
17500.000000, 86.382, 82.4097
17750.000000, 84.394, 80.4484
18000.000000, 82.432, 81.6526
18250.000000, 80.575, 84.4309
18500.000000, 78.736, 88.2717
18750.000000, 76.915, 94.3946
19000.000000, 75.317, 104.1012
19250.000000, 74.044, 116.9174
19500.000000, 72.972, 130.9424
19750.000000, 71.954, 144.3373
20000.000000, 70.850, 156.6841
20300.000000, 69.373, 171.0505
20600.000000, 67.877, -174.2490
20900.000000, 66.420, -158.9307
21200.000000, 65.034, -143.5311
21400.000000, 64.126, -133.6836
21800.000000, 61.872, -116.5362
22000.000000, 59.952, -109.6817
22400.000000, 53.379, -100.4756
22700.000000, 46.446, -95.6753
23000.000000, 38.868, -87.1110
23300.000000, 33.361, -15.9151
23600.000000, 31.671, -15.9170
24000.000000, 31.210, 80.4735
