* Measurement data measured by REW V5.20.13
* Format: Comma/Tab/Space delimited data
* Dated: Aug 16, 2023 11:01:27 AM
* REW Settings:
*  C-weighting compensation: Off
*  Target level: 75.0 dB
* Note: 480 values loaded, 20 Hz to 20,186 Hz log spaced
* Measurement: Pleasant Target
* Smoothing: 1/24 octave
* Frequency Step: 1/48 octave
* Start Frequency: 20.000 Hz
*
* Freq(Hz) SPL(dB)
20.000000 9.269
20.299999 9.254
20.600000 9.239
20.900000 9.229
21.200001 9.219
21.400000 9.211
21.799999 9.196
22.000000 9.187
22.400000 9.166
22.700001 9.142
23.000000 9.125
23.299999 9.114
23.600000 9.103
24.000000 9.087
24.299999 9.074
24.700001 9.055
25.000000 9.036
25.400000 9.007
25.799999 8.987
26.200001 8.972
26.500000 8.960
26.900000 8.943
27.200001 8.930
27.600000 8.910
28.000000 8.885
28.500000 8.851
29.000000 8.827
29.500000 8.806
30.000000 8.784
30.400000 8.765
30.700001 8.749
31.100000 8.725
31.500000 8.698
32.000000 8.668
32.500000 8.645
33.000000 8.623
33.500000 8.599
34.000000 8.573
34.500000 8.544
35.000000 8.515
35.500000 8.485
36.000000 8.457
36.500000 8.433
37.000000 8.408
37.500000 8.382
38.200001 8.339
38.700001 8.307
39.500000 8.263
40.000000 8.239
40.599998 8.210
41.200001 8.179
41.799999 8.144
42.500000 8.095
43.099998 8.059
43.700001 8.030
44.400002 7.996
45.000000 7.965
45.500000 7.939
46.200001 7.898
46.799999 7.855
47.500000 7.814
48.200001 7.779
48.700001 7.754
49.400002 7.717
50.000000 7.682
50.799999 7.631
51.500000 7.589
52.200001 7.552
53.000000 7.511
53.799999 7.469
54.500000 7.429
55.200001 7.385
56.000000 7.336
57.000000 7.282
58.000000 7.231
59.000000 7.177
60.000000 7.112
60.799999 7.061
61.500000 7.026
62.200001 6.992
63.000000 6.949
64.000000 6.890
65.000000 6.830
66.000000 6.775
67.000000 6.724
68.000000 6.670
69.000000 6.610
70.000000 6.551
71.000000 6.497
72.000000 6.447
73.000000 6.392
74.000000 6.331
75.000000 6.272
76.199997 6.210
77.500000 6.140
78.800003 6.066
80.000000 6.002
81.199997 5.941
82.500000 5.868
83.800003 5.796
85.000000 5.735
86.199997 5.672
87.500000 5.597
88.500000 5.543
90.000000 5.468
91.199997 5.405
92.500000 5.340
93.800003 5.275
95.000000 5.212
96.199997 5.151
97.500000 5.088
98.800003 5.022
100.000000 4.963
101.500000 4.891
103.000000 4.818
104.400002 4.752
106.000000 4.675
107.500000 4.603
109.000000 4.535
110.599998 4.463
112.000000 4.401
113.800003 4.323
115.000000 4.270
117.199997 4.175
118.000000 4.141
120.599998 4.034
122.000000 3.978
124.099998 3.895
125.000000 3.861
126.500000 3.805
128.000000 3.748
131.500000 3.618
132.000000 3.600
134.000000 3.532
136.000000 3.466
138.000000 3.401
140.000000 3.338
143.000000 3.245
145.000000 3.186
147.500000 3.116
150.000000 3.049
152.500000 2.985
155.000000 2.922
157.500000 2.861
160.000000 2.804
162.500000 2.748
165.000000 2.695
167.500000 2.647
170.000000 2.597
172.500000 2.545
175.000000 2.497
177.500000 2.454
180.000000 2.413
182.500000 2.372
185.000000 2.333
187.500000 2.294
190.000000 2.257
192.500000 2.221
195.000000 2.185
197.500000 2.152
200.000000 2.120
203.000000 2.083
206.000000 2.045
209.000000 2.008
212.000000 1.975
214.000000 1.954
218.000000 1.910
220.000000 1.889
224.000000 1.850
227.000000 1.821
230.000000 1.792
233.000000 1.766
236.000000 1.742
240.000000 1.708
243.000000 1.683
247.000000 1.648
250.000000 1.624
254.000000 1.595
258.000000 1.567
262.000000 1.538
265.000000 1.518
269.000000 1.490
272.000000 1.471
276.000000 1.445
280.000000 1.421
285.000000 1.390
290.000000 1.362
295.000000 1.334
300.000000 1.307
304.000000 1.285
307.000000 1.270
311.000000 1.251
315.000000 1.232
320.000000 1.209
325.000000 1.184
330.000000 1.162
335.000000 1.139
340.000000 1.119
345.000000 1.099
350.000000 1.078
355.000000 1.057
360.000000 1.039
365.000000 1.021
370.000000 1.002
375.000000 0.982
382.000000 0.958
387.000000 0.942
395.000000 0.916
400.000000 0.900
406.000000 0.880
412.000000 0.861
418.000000 0.843
425.000000 0.823
431.000000 0.806
437.000000 0.789
444.000000 0.770
450.000000 0.754
455.000000 0.740
462.000000 0.720
468.000000 0.705
475.000000 0.688
482.000000 0.671
487.000000 0.660
494.000000 0.648
500.000000 0.634
508.000000 0.609
515.000000 0.593
522.000000 0.581
530.000000 0.567
538.000000 0.543
545.000000 0.529
552.000000 0.517
560.000000 0.502
570.000000 0.482
580.000000 0.464
590.000000 0.448
600.000000 0.429
608.000000 0.411
615.000000 0.398
622.000000 0.388
630.000000 0.379
640.000000 0.362
650.000000 0.339
660.000000 0.325
670.000000 0.314
680.000000 0.299
690.000000 0.280
700.000000 0.267
710.000000 0.251
720.000000 0.238
730.000000 0.223
740.000000 0.209
750.000000 0.199
762.000000 0.178
775.000000 0.165
788.000000 0.148
800.000000 0.135
812.000000 0.121
825.000000 0.106
838.000000 0.090
850.000000 0.074
862.000000 0.063
875.000000 0.051
885.000000 0.042
900.000000 0.033
912.000000 0.022
925.000000 0.006
938.000000 -0.002
950.000000 -0.004
962.000000 -0.006
975.000000 -0.009
988.000000 -0.007
1000.000000 0.010
1015.000000 0.062
1030.000000 0.118
1044.000000 0.174
1060.000000 0.246
1075.000000 0.316
1090.000000 0.400
1106.000000 0.502
1120.000000 0.596
1138.000000 0.719
1150.000000 0.800
1172.000000 0.948
1180.000000 1.000
1206.000000 1.170
1220.000000 1.257
1241.000000 1.385
1250.000000 1.439
1265.000000 1.526
1280.000000 1.610
1315.000000 1.791
1320.000000 1.815
1340.000000 1.909
1360.000000 2.002
1380.000000 2.091
1400.000000 2.180
1430.000000 2.315
1450.000000 2.391
1475.000000 2.483
1500.000000 2.581
1525.000000 2.680
1550.000000 2.779
1575.000000 2.876
1600.000000 2.976
1625.000000 3.080
1650.000000 3.188
1675.000000 3.298
1700.000000 3.411
1725.000000 3.527
1750.000000 3.639
1775.000000 3.743
1800.000000 3.855
1825.000000 3.983
1850.000000 4.118
1875.000000 4.248
1900.000000 4.375
1925.000000 4.502
1950.000000 4.629
1975.000000 4.754
2000.000000 4.878
2030.000000 5.021
2060.000000 5.157
2090.000000 5.290
2120.000000 5.423
2140.000000 5.514
2180.000000 5.690
2200.000000 5.762
2240.000000 5.893
2270.000000 5.997
2300.000000 6.101
2330.000000 6.200
2360.000000 6.291
2400.000000 6.396
2430.000000 6.464
2470.000000 6.542
2500.000000 6.593
2540.000000 6.652
2580.000000 6.706
2620.000000 6.747
2650.000000 6.766
2690.000000 6.776
2720.000000 6.777
2760.000000 6.769
2800.000000 6.751
2850.000000 6.717
2900.000000 6.671
2950.000000 6.617
3000.000000 6.550
3040.000000 6.488
3070.000000 6.441
3110.000000 6.378
3150.000000 6.313
3200.000000 6.230
3250.000000 6.144
3300.000000 6.062
3350.000000 5.992
3400.000000 5.928
3450.000000 5.860
3500.000000 5.799
3550.000000 5.750
3600.000000 5.699
3650.000000 5.644
3700.000000 5.590
3750.000000 5.540
3820.000000 5.476
3870.000000 5.433
3950.000000 5.365
4000.000000 5.325
4060.000000 5.276
4120.000000 5.229
4180.000000 5.183
4250.000000 5.131
4310.000000 5.084
4370.000000 5.037
4440.000000 4.983
4500.000000 4.937
4550.000000 4.899
4620.000000 4.849
4680.000000 4.808
4750.000000 4.760
4820.000000 4.712
4870.000000 4.680
4940.000000 4.638
5000.000000 4.603
5080.000000 4.557
5150.000000 4.513
5220.000000 4.459
5300.000000 4.395
5380.000000 4.355
5450.000000 4.332
5520.000000 4.297
5600.000000 4.240
5700.000000 4.177
5800.000000 4.121
5900.000000 4.046
6000.000000 3.963
6080.000000 3.896
6150.000000 3.837
6220.000000 3.779
6300.000000 3.713
6400.000000 3.633
6500.000000 3.554
6600.000000 3.476
6700.000000 3.398
6800.000000 3.321
6900.000000 3.247
7000.000000 3.175
7100.000000 3.105
7200.000000 3.034
7300.000000 2.963
7400.000000 2.895
7500.000000 2.829
7620.000000 2.751
7750.000000 2.670
7880.000000 2.594
8000.000000 2.525
8120.000000 2.455
8250.000000 2.380
8380.000000 2.308
8500.000000 2.243
8620.000000 2.177
8750.000000 2.109
8850.000000 2.058
9000.000000 1.982
9120.000000 1.920
9250.000000 1.854
9380.000000 1.789
9500.000000 1.729
9620.000000 1.669
9750.000000 1.601
9880.000000 1.533
10000.000000 1.473
10150.000000 1.400
10300.000000 1.321
10440.000000 1.233
10600.000000 1.130
10750.000000 1.045
10900.000000 0.969
11060.000000 0.898
11200.000000 0.837
11380.000000 0.765
11500.000000 0.724
11720.000000 0.648
11800.000000 0.620
12060.000000 0.528
12200.000000 0.480
12410.000000 0.414
12500.000000 0.387
12650.000000 0.345
12800.000000 0.305
13150.000000 0.223
13200.000000 0.212
13400.000000 0.173
13600.000000 0.138
13800.000000 0.105
14000.000000 0.071
14300.000000 0.026
14500.000000 -0.001
14750.000000 -0.031
15000.000000 -0.059
15250.000000 -0.089
15500.000000 -0.124
15750.000000 -0.160
16000.000000 -0.199
16250.000000 -0.241
16500.000000 -0.288
16750.000000 -0.338
17000.000000 -0.395
17250.000000 -0.457
17500.000000 -0.523
17750.000000 -0.594
18000.000000 -0.670
18250.000000 -0.751
18500.000000 -0.836
18750.000000 -0.925
19000.000000 -1.017
19250.000000 -1.112
19500.000000 -1.209
19750.000000 -1.297
20000.000000 -1.350
