* Measurement data measured by REW V5.31.1
* Source: CUBILUX HLMS-C5 MIC IN, MICROPHONE, R, volume: 1.000
* Format: 4M Log Swept Sine, 1 sweep at -35.0 dBFS with no timing reference
* Dated: Sep 13, 2024 9:10:48 PM
* REW Settings:
*  C-weighting compensation: Off
*  Target level: 75.0 dB
* Note: ; 
* Measurement: CCA Duo L
* Smoothing: 1/24 octave
* Frequency Step: 1/48 octave
* Start Frequency: 1.000 Hz
*
* Freq(Hz), SPL(dB), Phase(degrees)
1.000000, 31.734, 126.9933
1.015000, 31.488, 131.1475
1.030000, 31.292, 135.9508
1.044000, 31.160, 140.9743
1.060000, 31.074, 147.2135
1.075000, 31.063, 153.3280
1.090000, 31.126, 159.4403
1.106000, 31.277, 165.7220
1.120000, 31.484, 170.9256
1.138000, 31.844, 177.0948
1.150000, 32.138, -179.1775
1.172000, 32.782, -173.2034
1.180000, 33.046, -171.3043
1.206000, 34.000, -166.0611
1.220000, 34.567, -163.7684
1.241000, 35.474, -160.9228
1.250000, 35.880, -159.8955
1.265000, 36.576, -158.4079
1.280000, 37.290, -157.1702
1.315000, 38.992, -155.0898
1.320000, 39.236, -154.8716
1.340000, 40.208, -154.1665
1.360000, 41.160, -153.7015
1.380000, 42.079, -153.4450
1.400000, 42.951, -153.3713
1.430000, 44.143, -153.5598
1.450000, 44.843, -153.8585
1.475000, 45.615, -154.3713
1.500000, 46.316, -154.9413
1.525000, 46.971, -155.5272
1.550000, 47.588, -156.1288
1.575000, 48.169, -156.7504
1.600000, 48.718, -157.3954
1.625000, 49.239, -158.0669
1.650000, 49.735, -158.7675
1.675000, 50.210, -159.4993
1.700000, 50.667, -160.2644
1.725000, 51.110, -161.0646
1.750000, 51.543, -161.9015
1.775000, 51.969, -162.7766
1.800000, 52.391, -163.6910
1.825000, 52.812, -164.6434
1.850000, 53.226, -165.6216
1.875000, 53.625, -166.6072
1.900000, 54.008, -167.5916
1.925000, 54.375, -168.5714
1.950000, 54.728, -169.5454
1.975000, 55.069, -170.5131
2.000000, 55.397, -171.4745
2.030000, 55.777, -172.6208
2.060000, 56.144, -173.7608
2.090000, 56.501, -174.8969
2.120000, 56.849, -176.0321
2.140000, 57.078, -176.7899
2.180000, 57.529, -178.3128
2.200000, 57.751, -179.0798
2.240000, 58.184, 179.3749
2.270000, 58.495, 178.2115
2.300000, 58.796, 177.0499
2.330000, 59.086, 175.8943
2.360000, 59.368, 174.7475
2.400000, 59.730, 173.2357
2.430000, 59.992, 172.1161
2.470000, 60.333, 170.6430
2.500000, 60.582, 169.5526
2.540000, 60.907, 168.1153
2.580000, 61.224, 166.6882
2.620000, 61.530, 165.2570
2.650000, 61.751, 164.1810
2.690000, 62.036, 162.7497
2.720000, 62.242, 161.6833
2.760000, 62.509, 160.2766
2.800000, 62.767, 158.8919
2.850000, 63.078, 157.1982
2.900000, 63.379, 155.5493
2.950000, 63.671, 153.9362
3.000000, 63.950, 152.3320
3.040000, 64.164, 151.0522
3.070000, 64.319, 150.0978
3.110000, 64.520, 148.8372
3.150000, 64.715, 147.5949
3.200000, 64.950, 146.0744
3.250000, 65.178, 144.5957
3.300000, 65.398, 143.1583
3.350000, 65.611, 141.7444
3.400000, 65.815, 140.3412
3.450000, 66.009, 138.9529
3.500000, 66.197, 137.5867
3.550000, 66.378, 136.2496
3.600000, 66.553, 134.9477
3.650000, 66.724, 133.6842
3.700000, 66.889, 132.4515
3.750000, 67.048, 131.2376
3.820000, 67.261, 129.5667
3.870000, 67.407, 128.3981
3.950000, 67.632, 126.5813
4.000000, 67.768, 125.4836
4.060000, 67.927, 124.2024
4.120000, 68.080, 122.9498
4.180000, 68.228, 121.7217
4.250000, 68.393, 120.3223
4.310000, 68.531, 119.1546
4.370000, 68.666, 118.0186
4.440000, 68.818, 116.7306
4.500000, 68.945, 115.6522
4.550000, 69.048, 114.7700
4.620000, 69.188, 113.5607
4.680000, 69.305, 112.5490
4.750000, 69.439, 111.3982
4.820000, 69.569, 110.2767
4.870000, 69.660, 109.4909
4.940000, 69.784, 108.4115
5.000000, 69.888, 107.5054
5.080000, 70.023, 106.3256
5.150000, 70.139, 105.3192
5.220000, 70.252, 104.3345
5.300000, 70.378, 103.2333
5.380000, 70.501, 102.1575
5.450000, 70.607, 101.2371
5.520000, 70.711, 100.3360
5.600000, 70.827, 99.3279
5.700000, 70.969, 98.0973
5.800000, 71.108, 96.8970
5.900000, 71.245, 95.7251
6.000000, 71.379, 94.5803
6.080000, 71.484, 93.6815
6.150000, 71.575, 92.9054
6.220000, 71.665, 92.1378
6.300000, 71.766, 91.2705
6.400000, 71.891, 90.2007
6.500000, 72.014, 89.1444
6.600000, 72.134, 88.0984
6.700000, 72.251, 87.0603
6.800000, 72.366, 86.0309
6.900000, 72.477, 85.0115
7.000000, 72.585, 84.0015
7.100000, 72.690, 82.9984
7.200000, 72.791, 82.0055
7.300000, 72.888, 81.0281
7.400000, 72.981, 80.0664
7.500000, 73.070, 79.1185
7.620000, 73.173, 78.0054
7.750000, 73.280, 76.8381
7.880000, 73.383, 75.7079
8.000000, 73.474, 74.6973
8.120000, 73.565, 73.7211
8.250000, 73.663, 72.6999
8.380000, 73.760, 71.7056
8.500000, 73.852, 70.8067
8.620000, 73.946, 69.9238
8.750000, 74.048, 68.9702
8.850000, 74.129, 68.2309
9.000000, 74.250, 67.1120
9.120000, 74.347, 66.1990
9.250000, 74.451, 65.1826
9.380000, 74.552, 64.1401
9.500000, 74.640, 63.1582
9.620000, 74.724, 62.1557
9.750000, 74.806, 61.0521
9.880000, 74.874, 59.9468
10.000000, 74.921, 58.9301
10.150000, 74.960, 57.6731
10.300000, 74.980, 56.4604
10.440000, 74.987, 55.3757
10.600000, 74.990, 54.2055
10.750000, 74.986, 53.1910
10.900000, 74.979, 52.2522
11.060000, 74.974, 51.3307
11.200000, 74.973, 50.5870
11.380000, 74.980, 49.6854
11.500000, 74.990, 49.1080
11.720000, 75.022, 48.0614
11.800000, 75.037, 47.6737
12.060000, 75.093, 46.3693
12.200000, 75.124, 45.6257
12.410000, 75.170, 44.4613
12.500000, 75.191, 43.9487
12.650000, 75.226, 43.0808
12.800000, 75.257, 42.2115
13.150000, 75.310, 40.2434
13.200000, 75.316, 39.9751
13.400000, 75.335, 38.9427
13.600000, 75.353, 37.9744
13.800000, 75.374, 37.0643
14.000000, 75.400, 36.1886
14.300000, 75.451, 34.8916
14.500000, 75.490, 34.0053
14.750000, 75.539, 32.8574
15.000000, 75.581, 31.6710
15.250000, 75.612, 30.4762
15.500000, 75.631, 29.3125
15.750000, 75.643, 28.2112
16.000000, 75.655, 27.1882
16.250000, 75.672, 26.2316
16.500000, 75.699, 25.3133
16.750000, 75.733, 24.3962
17.000000, 75.771, 23.4512
17.250000, 75.808, 22.4692
17.500000, 75.837, 21.4599
17.750000, 75.857, 20.4517
18.000000, 75.868, 19.4755
18.250000, 75.871, 18.5565
18.500000, 75.874, 17.7038
18.750000, 75.879, 16.9076
19.000000, 75.891, 16.1459
19.250000, 75.908, 15.3895
19.500000, 75.928, 14.6176
19.750000, 75.949, 13.8213
20.000000, 75.966, 13.0061
20.299999, 75.979, 12.0262
20.600000, 75.985, 11.0742
20.900000, 75.987, 10.1702
21.200001, 75.990, 9.3136
21.400000, 75.994, 8.7597
21.799999, 76.008, 7.6611
22.000000, 76.016, 7.1048
22.400000, 76.031, 5.9699
22.700001, 76.039, 5.1094
23.000000, 76.043, 4.2552
23.299999, 76.044, 3.4158
23.600000, 76.045, 2.5912
24.000000, 76.046, 1.5031
24.299999, 76.046, 0.6886
24.700001, 76.042, -0.3911
25.000000, 76.035, -1.1831
25.400000, 76.023, -2.1952
25.799999, 76.012, -3.1527
26.200001, 76.007, -4.0775
26.500000, 76.006, -4.7702
26.900000, 76.006, -5.7088
27.200001, 76.003, -6.4197
27.600000, 75.993, -7.3517
28.000000, 75.980, -8.2354
28.500000, 75.966, -9.2616
29.000000, 75.963, -10.2519
29.500000, 75.966, -11.2787
30.000000, 75.965, -12.3557
30.400000, 75.957, -13.2190
30.700001, 75.946, -13.8466
31.100000, 75.932, -14.6485
31.500000, 75.919, -15.4236
32.000000, 75.908, -16.3946
32.500000, 75.895, -17.3933
33.000000, 75.875, -18.3996
33.500000, 75.847, -19.3703
34.000000, 75.816, -20.2828
34.500000, 75.789, -21.1497
35.000000, 75.767, -22.0011
35.500000, 75.749, -22.8612
36.000000, 75.731, -23.7372
36.500000, 75.711, -24.6215
37.000000, 75.687, -25.5001
37.500000, 75.662, -26.3627
38.200001, 75.625, -27.5358
38.700001, 75.599, -28.3445
39.500000, 75.561, -29.5843
40.000000, 75.542, -30.3444
40.599998, 75.525, -31.2792
41.200001, 75.504, -32.2470
41.799999, 75.475, -33.2078
42.500000, 75.436, -34.2590
43.099998, 75.407, -35.1097
43.700001, 75.382, -35.9613
44.400002, 75.351, -36.9761
45.000000, 75.319, -37.8274
45.500000, 75.291, -38.5055
46.200001, 75.257, -39.4323
46.799999, 75.230, -40.2378
47.500000, 75.196, -41.1837
48.200001, 75.161, -42.1170
48.700001, 75.136, -42.7851
49.400002, 75.098, -43.7231
50.000000, 75.063, -44.4991
50.799999, 75.021, -45.4837
51.500000, 74.992, -46.3688
52.200001, 74.956, -47.2969
53.000000, 74.901, -48.3001
53.799999, 74.851, -49.1845
54.500000, 74.819, -49.9485
55.200001, 74.790, -50.7667
56.000000, 74.747, -51.7084
57.000000, 74.694, -52.8125
58.000000, 74.649, -53.9208
59.000000, 74.598, -55.0269
60.000000, 74.550, -56.0893
60.799999, 74.512, -56.9285
61.500000, 74.479, -57.6538
62.200001, 74.444, -58.3697
63.000000, 74.402, -59.1627
64.000000, 74.352, -60.0951
65.000000, 74.310, -61.0254
66.000000, 74.268, -61.9979
67.000000, 74.219, -62.9887
68.000000, 74.162, -63.9513
69.000000, 74.107, -64.8500
70.000000, 74.059, -65.7331
71.000000, 74.013, -66.6356
72.000000, 73.964, -67.5400
73.000000, 73.912, -68.4121
74.000000, 73.863, -69.2334
75.000000, 73.820, -70.0409
76.199997, 73.769, -71.0400
77.500000, 73.709, -72.1055
78.800003, 73.650, -73.1312
80.000000, 73.596, -74.0704
81.199997, 73.542, -74.9920
82.500000, 73.483, -75.9701
83.800003, 73.425, -76.9350
85.000000, 73.371, -77.8102
86.199997, 73.319, -78.6703
87.500000, 73.264, -79.6086
88.500000, 73.222, -80.3163
90.000000, 73.162, -81.3401
91.199997, 73.114, -82.1421
92.500000, 73.059, -82.9699
93.800003, 73.006, -83.7494
95.000000, 72.960, -84.4628
96.199997, 72.914, -85.2122
97.500000, 72.861, -86.0523
98.800003, 72.804, -86.8656
100.000000, 72.757, -87.5678
101.500000, 72.707, -88.4457
103.000000, 72.657, -89.2956
104.400002, 72.611, -90.0623
106.000000, 72.556, -90.9157
107.500000, 72.505, -91.7255
109.000000, 72.448, -92.5358
110.599998, 72.390, -93.3485
112.000000, 72.345, -94.0426
113.800003, 72.290, -94.9311
115.000000, 72.254, -95.5169
117.199997, 72.186, -96.5652
118.000000, 72.160, -96.9384
120.599998, 72.079, -98.0984
122.000000, 72.036, -98.7012
124.099998, 71.975, -99.5849
125.000000, 71.951, -99.9594
126.500000, 71.914, -100.5866
128.000000, 71.877, -101.2179
131.500000, 71.789, -102.5952
132.000000, 71.777, -102.7854
134.000000, 71.725, -103.5443
136.000000, 71.673, -104.2880
138.000000, 71.626, -105.0068
140.000000, 71.584, -105.7273
143.000000, 71.519, -106.7732
145.000000, 71.472, -107.4381
147.500000, 71.419, -108.2316
150.000000, 71.371, -108.9918
152.500000, 71.323, -109.7454
155.000000, 71.271, -110.4866
157.500000, 71.219, -111.2097
160.000000, 71.166, -111.8886
162.500000, 71.115, -112.5154
165.000000, 71.063, -113.1449
167.500000, 71.011, -113.7581
170.000000, 70.959, -114.3186
172.500000, 70.905, -114.8233
175.000000, 70.851, -115.3371
177.500000, 70.798, -115.8393
180.000000, 70.752, -116.2788
182.500000, 70.710, -116.6413
185.000000, 70.672, -116.9362
187.500000, 70.646, -117.1901
190.000000, 70.639, -117.4305
192.500000, 70.651, -117.7008
195.000000, 70.675, -118.0774
197.500000, 70.699, -118.5905
200.000000, 70.713, -119.2102
203.000000, 70.710, -120.0038
206.000000, 70.691, -120.7830
209.000000, 70.660, -121.5103
212.000000, 70.623, -122.1719
214.000000, 70.598, -122.5799
218.000000, 70.547, -123.3191
220.000000, 70.521, -123.6512
224.000000, 70.468, -124.2798
227.000000, 70.432, -124.7381
230.000000, 70.401, -125.1793
233.000000, 70.369, -125.5909
236.000000, 70.336, -125.9638
240.000000, 70.296, -126.4556
243.000000, 70.267, -126.8143
247.000000, 70.231, -127.2750
250.000000, 70.205, -127.6080
254.000000, 70.173, -128.0217
258.000000, 70.144, -128.4126
262.000000, 70.115, -128.7730
265.000000, 70.093, -129.0296
269.000000, 70.066, -129.3685
272.000000, 70.047, -129.6136
276.000000, 70.023, -129.9243
280.000000, 69.998, -130.2181
285.000000, 69.969, -130.5691
290.000000, 69.945, -130.8909
295.000000, 69.920, -131.1767
300.000000, 69.897, -131.4488
304.000000, 69.879, -131.6683
307.000000, 69.865, -131.8309
311.000000, 69.848, -132.0330
315.000000, 69.833, -132.2121
320.000000, 69.816, -132.4179
325.000000, 69.800, -132.6069
330.000000, 69.785, -132.7979
335.000000, 69.772, -132.9659
340.000000, 69.760, -133.1056
345.000000, 69.748, -133.2383
350.000000, 69.737, -133.3645
355.000000, 69.727, -133.4749
360.000000, 69.719, -133.5701
365.000000, 69.712, -133.6587
370.000000, 69.705, -133.7391
375.000000, 69.699, -133.7954
382.000000, 69.691, -133.8616
387.000000, 69.687, -133.9020
395.000000, 69.684, -133.9447
400.000000, 69.684, -133.9570
406.000000, 69.683, -133.9710
412.000000, 69.684, -133.9676
418.000000, 69.685, -133.9446
425.000000, 69.688, -133.9005
431.000000, 69.693, -133.8564
437.000000, 69.699, -133.8081
444.000000, 69.707, -133.7365
450.000000, 69.716, -133.6673
455.000000, 69.725, -133.6008
462.000000, 69.737, -133.4979
468.000000, 69.749, -133.4052
475.000000, 69.764, -133.2804
482.000000, 69.781, -133.1513
487.000000, 69.794, -133.0599
494.000000, 69.814, -132.9207
500.000000, 69.833, -132.7926
508.000000, 69.859, -132.6082
515.000000, 69.883, -132.4439
522.000000, 69.909, -132.2748
530.000000, 69.941, -132.0813
538.000000, 69.976, -131.8886
545.000000, 70.007, -131.7151
552.000000, 70.040, -131.5377
560.000000, 70.081, -131.3315
570.000000, 70.132, -131.0777
580.000000, 70.186, -130.8259
590.000000, 70.242, -130.5742
600.000000, 70.301, -130.3298
608.000000, 70.349, -130.1384
615.000000, 70.391, -129.9720
622.000000, 70.434, -129.8106
630.000000, 70.484, -129.6292
640.000000, 70.547, -129.4106
650.000000, 70.612, -129.2048
660.000000, 70.676, -129.0145
670.000000, 70.739, -128.8279
680.000000, 70.802, -128.6510
690.000000, 70.863, -128.4826
700.000000, 70.920, -128.3093
710.000000, 70.976, -128.1193
720.000000, 71.031, -127.8986
730.000000, 71.088, -127.6561
740.000000, 71.149, -127.3946
750.000000, 71.215, -127.1291
762.000000, 71.298, -126.8277
775.000000, 71.391, -126.5245
788.000000, 71.485, -126.2421
800.000000, 71.570, -125.9875
812.000000, 71.653, -125.7474
825.000000, 71.741, -125.4940
838.000000, 71.830, -125.2431
850.000000, 71.914, -125.0167
862.000000, 72.000, -124.8028
875.000000, 72.097, -124.5950
885.000000, 72.173, -124.4540
900.000000, 72.287, -124.2961
912.000000, 72.375, -124.2295
925.000000, 72.458, -124.2013
938.000000, 72.522, -124.1153
950.000000, 72.577, -123.8748
962.000000, 72.651, -123.5212
975.000000, 72.756, -123.1587
988.000000, 72.877, -122.9050
1000.000000, 72.992, -122.7607
1015.000000, 73.136, -122.6662
1030.000000, 73.280, -122.6526
1044.000000, 73.411, -122.7133
1060.000000, 73.554, -122.8707
1075.000000, 73.677, -123.1026
1090.000000, 73.783, -123.3871
1106.000000, 73.873, -123.6672
1120.000000, 73.941, -123.8208
1138.000000, 74.029, -123.8839
1150.000000, 74.095, -123.8863
1172.000000, 74.226, -123.9218
1180.000000, 74.276, -123.9555
1206.000000, 74.432, -124.1255
1220.000000, 74.512, -124.2348
1241.000000, 74.625, -124.4015
1250.000000, 74.673, -124.4717
1265.000000, 74.753, -124.5827
1280.000000, 74.833, -124.6861
1315.000000, 75.014, -124.9026
1320.000000, 75.040, -124.9331
1340.000000, 75.141, -125.0526
1360.000000, 75.240, -125.1667
1380.000000, 75.336, -125.2750
1400.000000, 75.430, -125.3760
1430.000000, 75.566, -125.5092
1450.000000, 75.655, -125.5794
1475.000000, 75.765, -125.6499
1500.000000, 75.874, -125.7008
1525.000000, 75.982, -125.7305
1550.000000, 76.090, -125.7420
1575.000000, 76.200, -125.7377
1600.000000, 76.312, -125.7191
1625.000000, 76.427, -125.6887
1650.000000, 76.544, -125.6508
1675.000000, 76.663, -125.6076
1700.000000, 76.784, -125.5613
1725.000000, 76.907, -125.5155
1750.000000, 77.033, -125.4729
1775.000000, 77.163, -125.4337
1800.000000, 77.295, -125.4026
1825.000000, 77.430, -125.3817
1850.000000, 77.567, -125.3718
1875.000000, 77.707, -125.3773
1900.000000, 77.850, -125.3986
1925.000000, 77.995, -125.4397
1950.000000, 78.143, -125.5004
1975.000000, 78.293, -125.5825
2000.000000, 78.445, -125.6898
2030.000000, 78.631, -125.8541
2060.000000, 78.820, -126.0589
2090.000000, 79.011, -126.3084
2120.000000, 79.203, -126.6055
2140.000000, 79.332, -126.8304
2180.000000, 79.591, -127.3494
2200.000000, 79.721, -127.6454
2240.000000, 79.981, -128.3140
2270.000000, 80.175, -128.8851
2300.000000, 80.367, -129.5168
2330.000000, 80.557, -130.2100
2360.000000, 80.744, -130.9675
2400.000000, 80.987, -132.0816
2430.000000, 81.163, -132.9966
2470.000000, 81.387, -134.3179
2500.000000, 81.545, -135.3796
2540.000000, 81.738, -136.8822
2580.000000, 81.913, -138.4752
2620.000000, 82.068, -140.1443
2650.000000, 82.170, -141.4368
2690.000000, 82.288, -143.2020
2720.000000, 82.361, -144.5473
2760.000000, 82.438, -146.3565
2800.000000, 82.492, -148.1670
2850.000000, 82.526, -150.4010
2900.000000, 82.526, -152.5686
2950.000000, 82.493, -154.6396
3000.000000, 82.433, -156.5876
3040.000000, 82.368, -158.0445
3070.000000, 82.310, -159.0732
3110.000000, 82.224, -160.3567
3150.000000, 82.131, -161.5369
3200.000000, 82.010, -162.8685
3250.000000, 81.884, -164.0426
3300.000000, 81.752, -165.0616
3350.000000, 81.618, -165.9322
3400.000000, 81.484, -166.6594
3450.000000, 81.351, -167.2486
3500.000000, 81.224, -167.7043
3550.000000, 81.103, -168.0359
3600.000000, 80.992, -168.2580
3650.000000, 80.894, -168.3904
3700.000000, 80.812, -168.4646
3750.000000, 80.743, -168.5197
3820.000000, 80.663, -168.6108
3870.000000, 80.612, -168.6928
3950.000000, 80.530, -168.8192
4000.000000, 80.471, -168.8719
4060.000000, 80.385, -168.8867
4120.000000, 80.295, -168.8327
4180.000000, 80.210, -168.7041
4250.000000, 80.128, -168.4732
4310.000000, 80.074, -168.2352
4370.000000, 80.036, -167.9901
4440.000000, 80.012, -167.7271
4500.000000, 80.006, -167.5427
4550.000000, 80.011, -167.4296
4620.000000, 80.030, -167.3479
4680.000000, 80.056, -167.3588
4750.000000, 80.092, -167.4771
4820.000000, 80.133, -167.7169
4870.000000, 80.162, -167.9638
4940.000000, 80.201, -168.4090
5000.000000, 80.234, -168.8721
5080.000000, 80.277, -169.5896
5150.000000, 80.308, -170.2985
5220.000000, 80.331, -171.0844
5300.000000, 80.343, -172.0810
5380.000000, 80.336, -173.1739
5450.000000, 80.308, -174.1866
5520.000000, 80.258, -175.2224
5600.000000, 80.174, -176.3998
5700.000000, 80.029, -177.8080
5800.000000, 79.842, -179.0769
5900.000000, 79.621, 179.8598
6000.000000, 79.375, 179.0419
6080.000000, 79.167, 178.5663
6150.000000, 78.980, 178.2764
6220.000000, 78.788, 178.1002
6300.000000, 78.564, 178.0381
6400.000000, 78.277, 178.1830
6500.000000, 77.990, 178.5881
6600.000000, 77.711, 179.2529
6700.000000, 77.448, -179.8308
6800.000000, 77.208, -178.6811
6900.000000, 76.995, -177.3165
7000.000000, 76.816, -175.7672
7100.000000, 76.674, -174.0894
7200.000000, 76.568, -172.3340
7300.000000, 76.496, -170.5059
7400.000000, 76.459, -168.5955
7500.000000, 76.463, -166.6171
7620.000000, 76.527, -164.1990
7750.000000, 76.675, -161.5937
7880.000000, 76.909, -159.0806
8000.000000, 77.203, -156.9232
8120.000000, 77.572, -155.0162
8250.000000, 78.069, -153.3672
8380.000000, 78.675, -152.3379
8500.000000, 79.332, -152.1647
8620.000000, 80.074, -153.0186
8750.000000, 80.938, -155.4947
8850.000000, 81.599, -158.7576
9000.000000, 82.444, -166.1241
9120.000000, 82.848, -173.9381
9250.000000, 82.873, 176.5411
9380.000000, 82.430, 167.2296
9500.000000, 81.669, 159.8949
9620.000000, 80.686, 154.3376
9750.000000, 79.510, 150.4265
9880.000000, 78.331, 148.4492
10000.000000, 77.298, 147.9887
10150.000000, 76.119, 148.7796
10300.000000, 75.078, 150.6581
10440.000000, 74.230, 153.1002
10600.000000, 73.398, 156.4611
10750.000000, 72.741, 159.9982
10900.000000, 72.196, 163.7925
11060.000000, 71.729, 168.0275
11200.000000, 71.413, 171.8305
11380.000000, 71.130, 176.7848
11500.000000, 71.017, -179.9118
11720.000000, 70.968, -173.9544
11800.000000, 71.002, -171.8491
12060.000000, 71.316, -165.4044
12200.000000, 71.618, -162.3069
12410.000000, 72.263, -158.4360
12500.000000, 72.617, -157.1735
12650.000000, 73.309, -155.8014
12800.000000, 74.110, -155.6220
13150.000000, 76.089, -161.9532
13200.000000, 76.329, -163.7628
13400.000000, 76.995, -173.0112
13600.000000, 76.997, 176.0013
13800.000000, 76.291, 165.8558
14000.000000, 75.082, 158.5926
14300.000000, 72.972, 154.1180
14500.000000, 71.675, 154.5052
14750.000000, 70.324, 157.2834
15000.000000, 69.280, 161.5177
15250.000000, 68.522, 166.5276
15500.000000, 68.036, 171.8595
15750.000000, 67.814, 177.1265
16000.000000, 67.870, -178.0526
16250.000000, 68.215, -174.1019
16500.000000, 68.800, -171.5619
16750.000000, 69.540, -171.0596
17000.000000, 70.308, -173.1347
17250.000000, 70.918, -177.9241
17500.000000, 71.171, 175.1887
17750.000000, 70.940, 167.6626
18000.000000, 70.268, 161.1959
18250.000000, 69.338, 156.8286
18500.000000, 68.369, 154.5674
18750.000000, 67.516, 153.6072
19000.000000, 66.830, 152.7850
19250.000000, 66.251, 150.9163
19500.000000, 65.619, 147.2081
19750.000000, 64.803, 141.9274
20000.000000, 64.111, 137.2746
