* Measurement data measured by REW V5.31.1
* Source: CUBILUX HLMS-C5 MIC IN, MICROPHONE, R, volume: 1.000
* Format: 4M Log Swept Sine, 1 sweep at -30.0 dBFS with no timing reference
* Dated: Oct 4, 2024 1:47:24 PM
* REW Settings:
*  C-weighting compensation: Off
*  Target level: 75.0 dB
* Note: ; 
* Measurement: Final Audio A8000 L
* Smoothing: 1/24 octave
* Frequency Step: 1/48 octave
* Start Frequency: 1.000 Hz
*
* Freq(Hz), SPL(dB), Phase(degrees)
1.000000, 57.266, 101.7670
1.015000, 57.234, 100.1639
1.030000, 57.205, 98.5683
1.044000, 57.180, 97.0881
1.060000, 57.157, 95.4098
1.075000, 57.138, 93.8515
1.090000, 57.124, 92.3088
1.106000, 57.113, 90.6754
1.120000, 57.106, 89.2456
1.138000, 57.101, 87.3976
1.150000, 57.098, 86.1583
1.172000, 57.098, 83.8708
1.180000, 57.099, 83.0341
1.206000, 57.108, 80.2972
1.220000, 57.115, 78.8133
1.241000, 57.130, 76.5759
1.250000, 57.138, 75.6133
1.265000, 57.153, 74.0055
1.280000, 57.171, 72.3943
1.315000, 57.221, 68.6318
1.320000, 57.230, 68.0951
1.340000, 57.266, 65.9531
1.360000, 57.307, 63.8234
1.380000, 57.353, 61.7117
1.400000, 57.403, 59.6241
1.430000, 57.488, 56.5510
1.450000, 57.551, 54.5493
1.475000, 57.637, 52.1028
1.500000, 57.734, 49.7065
1.525000, 57.842, 47.3546
1.550000, 57.960, 45.0483
1.575000, 58.087, 42.7893
1.600000, 58.221, 40.5786
1.625000, 58.362, 38.4173
1.650000, 58.509, 36.3057
1.675000, 58.660, 34.2439
1.700000, 58.814, 32.2316
1.725000, 58.971, 30.2684
1.750000, 59.129, 28.3535
1.775000, 59.287, 26.4860
1.800000, 59.444, 24.6646
1.825000, 59.600, 22.8874
1.850000, 59.756, 21.1506
1.875000, 59.915, 19.4499
1.900000, 60.077, 17.7842
1.925000, 60.243, 16.1539
1.950000, 60.411, 14.5593
1.975000, 60.581, 13.0007
2.000000, 60.752, 11.4783
2.030000, 60.959, 9.6993
2.060000, 61.166, 7.9724
2.090000, 61.373, 6.2974
2.120000, 61.577, 4.6739
2.140000, 61.712, 3.6199
2.180000, 61.977, 1.5784
2.200000, 62.108, 0.5892
2.240000, 62.366, -1.3349
2.270000, 62.558, -2.7355
2.300000, 62.750, -4.1011
2.330000, 62.940, -5.4328
2.360000, 63.129, -6.7315
2.400000, 63.379, -8.4137
2.430000, 63.564, -9.6396
2.470000, 63.808, -11.2288
2.500000, 63.988, -12.3882
2.540000, 64.223, -13.8932
2.580000, 64.455, -15.3558
2.620000, 64.682, -16.7820
2.650000, 64.849, -17.8294
2.690000, 65.070, -19.1969
2.720000, 65.233, -20.2011
2.760000, 65.446, -21.5122
2.800000, 65.656, -22.7925
2.850000, 65.912, -24.3516
2.900000, 66.162, -25.8681
2.950000, 66.405, -27.3495
3.000000, 66.642, -28.8076
3.040000, 66.826, -29.9581
3.070000, 66.962, -30.8099
3.110000, 67.140, -31.9286
3.150000, 67.313, -33.0256
3.200000, 67.525, -34.3633
3.250000, 67.731, -35.6611
3.300000, 67.931, -36.9202
3.350000, 68.124, -38.1522
3.400000, 68.312, -39.3652
3.450000, 68.493, -40.5571
3.500000, 68.669, -41.7234
3.550000, 68.840, -42.8600
3.600000, 69.007, -43.9633
3.650000, 69.169, -45.0317
3.700000, 69.326, -46.0711
3.750000, 69.479, -47.0902
3.820000, 69.684, -48.4844
3.870000, 69.825, -49.4528
3.950000, 70.045, -50.9457
4.000000, 70.180, -51.8386
4.060000, 70.339, -52.8687
4.120000, 70.493, -53.8608
4.180000, 70.642, -54.8208
4.250000, 70.813, -55.9042
4.310000, 70.957, -56.8036
4.370000, 71.101, -57.6770
4.440000, 71.268, -58.6607
4.500000, 71.409, -59.4730
4.550000, 71.526, -60.1318
4.620000, 71.688, -61.0350
4.680000, 71.827, -61.7983
4.750000, 71.989, -62.6827
4.820000, 72.151, -63.5570
4.870000, 72.267, -64.1721
4.940000, 72.429, -65.0245
5.000000, 72.567, -65.7541
5.080000, 72.749, -66.7368
5.150000, 72.906, -67.6119
5.220000, 73.062, -68.4978
5.300000, 73.239, -69.5191
5.380000, 73.411, -70.5509
5.450000, 73.558, -71.4654
5.520000, 73.699, -72.3951
5.600000, 73.856, -73.4795
5.700000, 74.043, -74.8557
5.800000, 74.219, -76.2342
5.900000, 74.382, -77.6092
6.000000, 74.531, -78.9963
6.080000, 74.641, -80.1037
6.150000, 74.731, -81.0556
6.220000, 74.814, -81.9837
6.300000, 74.902, -83.0218
6.400000, 74.999, -84.2950
6.500000, 75.086, -85.5205
6.600000, 75.165, -86.6725
6.700000, 75.235, -87.7520
6.800000, 75.297, -88.7688
6.900000, 75.355, -89.7162
7.000000, 75.413, -90.5849
7.100000, 75.470, -91.3756
7.200000, 75.527, -92.1024
7.300000, 75.588, -92.7789
7.400000, 75.655, -93.4057
7.500000, 75.726, -93.9838
7.620000, 75.819, -94.6452
7.750000, 75.930, -95.3560
7.880000, 76.052, -96.0603
8.000000, 76.171, -96.7285
8.120000, 76.293, -97.4393
8.250000, 76.429, -98.2538
8.380000, 76.565, -99.1147
8.500000, 76.687, -99.9573
8.620000, 76.804, -100.8420
8.750000, 76.924, -101.8289
8.850000, 77.010, -102.6019
9.000000, 77.129, -103.7817
9.120000, 77.215, -104.7218
9.250000, 77.300, -105.7216
9.380000, 77.376, -106.7019
9.500000, 77.441, -107.5778
9.620000, 77.502, -108.4185
9.750000, 77.564, -109.2930
9.880000, 77.618, -110.1315
10.000000, 77.660, -110.8732
10.150000, 77.704, -111.7640
10.300000, 77.744, -112.6293
10.440000, 77.779, -113.4191
10.600000, 77.818, -114.3116
10.750000, 77.855, -115.1488
10.900000, 77.890, -115.9858
11.060000, 77.925, -116.8780
11.200000, 77.951, -117.6564
11.380000, 77.978, -118.6375
11.500000, 77.992, -119.2740
11.720000, 78.010, -120.3873
11.800000, 78.015, -120.7693
12.060000, 78.027, -121.9239
12.200000, 78.035, -122.4886
12.410000, 78.055, -123.2747
12.500000, 78.070, -123.5967
12.650000, 78.104, -124.1197
12.800000, 78.146, -124.6426
13.150000, 78.261, -125.9320
13.200000, 78.278, -126.1292
13.400000, 78.344, -126.9552
13.600000, 78.402, -127.8295
13.800000, 78.449, -128.7341
14.000000, 78.481, -129.6287
14.300000, 78.505, -130.8785
14.500000, 78.511, -131.6030
14.750000, 78.520, -132.3733
15.000000, 78.544, -133.0250
15.250000, 78.592, -133.6455
15.500000, 78.665, -134.3504
15.750000, 78.752, -135.2337
16.000000, 78.834, -136.3490
16.250000, 78.892, -137.6685
16.500000, 78.908, -139.1061
16.750000, 78.872, -140.5254
17.000000, 78.786, -141.7681
17.250000, 78.664, -142.7023
17.500000, 78.532, -143.2390
17.750000, 78.419, -143.3800
18.000000, 78.351, -143.2197
18.250000, 78.344, -142.9227
18.500000, 78.395, -142.6806
18.750000, 78.491, -142.6391
19.000000, 78.608, -142.8728
19.250000, 78.724, -143.3744
19.500000, 78.823, -144.0778
19.750000, 78.899, -144.8962
20.000000, 78.950, -145.7422
20.299999, 78.987, -146.7067
20.600000, 79.011, -147.5672
20.900000, 79.032, -148.3234
21.200001, 79.056, -149.0073
21.400000, 79.075, -149.4419
21.799999, 79.116, -150.2943
22.000000, 79.137, -150.7194
22.400000, 79.176, -151.5681
22.700001, 79.202, -152.1983
23.000000, 79.224, -152.8188
23.299999, 79.243, -153.4268
23.600000, 79.258, -154.0197
24.000000, 79.272, -154.7819
24.299999, 79.279, -155.3302
24.700001, 79.284, -156.0296
25.000000, 79.285, -156.5310
25.400000, 79.284, -157.1681
25.799999, 79.281, -157.7662
26.200001, 79.278, -158.3251
26.500000, 79.278, -158.7240
26.900000, 79.283, -159.2448
27.200001, 79.290, -159.6399
27.600000, 79.302, -160.1873
28.000000, 79.314, -160.7636
28.500000, 79.324, -161.5086
29.000000, 79.325, -162.2345
29.500000, 79.321, -162.8837
30.000000, 79.322, -163.4347
30.400000, 79.332, -163.8324
30.700001, 79.346, -164.1341
31.100000, 79.370, -164.5736
31.500000, 79.393, -165.0710
32.000000, 79.411, -165.7486
32.500000, 79.411, -166.4197
33.000000, 79.401, -167.0279
33.500000, 79.391, -167.5873
34.000000, 79.384, -168.1728
34.500000, 79.368, -168.8356
35.000000, 79.329, -169.5117
35.500000, 79.269, -170.0470
36.000000, 79.218, -170.3671
36.500000, 79.208, -170.6251
37.000000, 79.229, -171.0828
37.500000, 79.236, -171.8031
38.200001, 79.172, -172.7410
38.700001, 79.121, -173.0094
39.500000, 79.154, -173.2345
40.000000, 79.210, -173.7557
40.599998, 79.219, -174.6526
41.200001, 79.163, -175.2918
41.799999, 79.122, -175.5346
42.500000, 79.125, -175.8235
43.099998, 79.120, -176.2774
43.700001, 79.090, -176.7424
44.400002, 79.049, -177.2042
45.000000, 79.015, -177.6121
45.500000, 78.982, -177.9442
46.200001, 78.944, -178.3423
46.799999, 78.930, -178.6775
47.500000, 78.931, -179.0855
48.200001, 78.968, -179.5239
48.700001, 79.019, 179.9800
49.400002, 79.069, 178.8907
50.000000, 79.042, 177.8792
50.799999, 78.943, 177.0607
51.500000, 78.873, 176.7647
52.200001, 78.811, 176.5911
53.000000, 78.738, 176.7097
53.799999, 78.729, 176.9989
54.500000, 78.756, 176.9147
55.200001, 78.752, 176.5360
56.000000, 78.707, 176.0931
57.000000, 78.639, 175.6793
58.000000, 78.594, 175.2841
59.000000, 78.562, 174.6513
60.000000, 78.502, 174.0187
60.799999, 78.468, 173.6981
61.500000, 78.463, 173.3616
62.200001, 78.451, 172.9299
63.000000, 78.420, 172.5185
64.000000, 78.390, 172.2263
65.000000, 78.376, 172.0296
66.000000, 78.386, 171.9250
67.000000, 78.424, 171.5231
68.000000, 78.402, 170.7042
69.000000, 78.293, 170.0803
70.000000, 78.175, 169.8802
71.000000, 78.089, 169.8102
72.000000, 78.034, 169.7022
73.000000, 78.003, 169.4265
74.000000, 77.967, 169.0141
75.000000, 77.927, 168.6709
76.199997, 77.894, 168.3089
77.500000, 77.854, 167.8842
78.800003, 77.792, 167.5368
80.000000, 77.735, 167.3035
81.199997, 77.680, 167.0344
82.500000, 77.624, 166.7094
83.800003, 77.572, 166.3583
85.000000, 77.532, 166.0581
86.199997, 77.491, 165.7485
87.500000, 77.439, 165.5023
88.500000, 77.398, 165.3769
90.000000, 77.350, 165.2089
91.199997, 77.309, 164.9451
92.500000, 77.257, 164.6638
93.800003, 77.202, 164.3544
95.000000, 77.149, 164.0866
96.199997, 77.086, 163.8288
97.500000, 77.014, 163.7525
98.800003, 76.980, 163.7742
100.000000, 76.967, 163.5703
101.500000, 76.921, 163.2134
103.000000, 76.873, 162.9787
104.400002, 76.807, 162.6871
106.000000, 76.715, 162.6022
107.500000, 76.651, 162.5278
109.000000, 76.600, 162.3186
110.599998, 76.549, 162.0172
112.000000, 76.506, 161.7961
113.800003, 76.446, 161.6317
115.000000, 76.402, 161.5924
117.199997, 76.314, 161.4158
118.000000, 76.275, 161.3135
120.599998, 76.162, 161.0807
122.000000, 76.117, 161.0501
124.099998, 76.056, 161.0099
125.000000, 76.027, 160.9163
126.500000, 75.963, 160.6284
128.000000, 75.902, 160.3255
131.500000, 75.872, 159.8692
132.000000, 75.869, 159.8735
134.000000, 75.831, 160.1055
136.000000, 75.734, 160.4076
138.000000, 75.613, 160.4725
140.000000, 75.516, 160.2860
143.000000, 75.453, 160.2879
145.000000, 75.425, 160.5990
147.500000, 75.376, 160.9879
150.000000, 75.340, 161.1605
152.500000, 75.333, 161.0430
155.000000, 75.311, 160.8594
157.500000, 75.272, 160.6673
160.000000, 75.208, 160.4548
162.500000, 75.129, 160.3748
165.000000, 75.044, 160.3506
167.500000, 74.967, 160.3270
170.000000, 74.900, 160.3046
172.500000, 74.839, 160.2919
175.000000, 74.774, 160.2943
177.500000, 74.708, 160.2840
180.000000, 74.641, 160.2667
182.500000, 74.583, 160.2757
185.000000, 74.531, 160.3611
187.500000, 74.477, 160.5182
190.000000, 74.411, 160.6227
192.500000, 74.338, 160.6923
195.000000, 74.274, 160.7361
197.500000, 74.215, 160.7616
200.000000, 74.163, 160.8346
203.000000, 74.103, 160.9538
206.000000, 74.038, 161.1485
209.000000, 73.998, 161.3145
212.000000, 73.956, 161.4039
214.000000, 73.911, 161.5346
218.000000, 73.810, 161.6865
220.000000, 73.761, 161.6268
224.000000, 73.675, 161.7226
227.000000, 73.616, 161.9518
230.000000, 73.564, 162.1276
233.000000, 73.512, 162.1901
236.000000, 73.453, 162.2747
240.000000, 73.373, 162.4624
243.000000, 73.316, 162.6925
247.000000, 73.226, 162.9246
250.000000, 73.162, 163.2078
254.000000, 73.088, 163.6571
258.000000, 73.017, 163.9312
262.000000, 72.959, 164.2234
265.000000, 72.921, 164.5852
269.000000, 72.877, 165.1323
272.000000, 72.855, 165.4827
276.000000, 72.847, 165.8415
280.000000, 72.851, 166.0468
285.000000, 72.842, 166.1808
290.000000, 72.805, 166.2350
295.000000, 72.741, 166.3663
300.000000, 72.689, 166.7033
304.000000, 72.671, 166.9902
307.000000, 72.646, 167.1376
311.000000, 72.593, 167.2872
315.000000, 72.539, 167.4087
320.000000, 72.489, 167.6227
325.000000, 72.444, 167.9425
330.000000, 72.398, 168.2797
335.000000, 72.354, 168.6003
340.000000, 72.310, 168.9119
345.000000, 72.270, 169.2160
350.000000, 72.229, 169.5188
355.000000, 72.183, 169.8665
360.000000, 72.140, 170.2166
365.000000, 72.105, 170.5231
370.000000, 72.071, 170.8348
375.000000, 72.031, 171.1966
382.000000, 71.973, 171.6354
387.000000, 71.936, 171.9766
395.000000, 71.879, 172.5299
400.000000, 71.844, 172.8636
406.000000, 71.804, 173.2285
412.000000, 71.762, 173.5953
418.000000, 71.718, 173.9900
425.000000, 71.676, 174.4688
431.000000, 71.651, 174.8506
437.000000, 71.622, 175.2578
444.000000, 71.583, 175.7653
450.000000, 71.547, 176.1462
455.000000, 71.515, 176.4549
462.000000, 71.484, 176.9789
468.000000, 71.467, 177.3904
475.000000, 71.448, 177.8484
482.000000, 71.423, 178.3267
487.000000, 71.402, 178.6830
494.000000, 71.374, 179.1722
500.000000, 71.353, 179.4701
508.000000, 71.338, 179.9669
515.000000, 71.315, -179.4469
522.000000, 71.286, -178.9500
530.000000, 71.262, -178.4074
538.000000, 71.242, -177.8270
545.000000, 71.224, -177.3553
552.000000, 71.203, -176.9139
560.000000, 71.181, -176.3773
570.000000, 71.156, -175.7031
580.000000, 71.134, -175.0288
590.000000, 71.122, -174.3155
600.000000, 71.109, -173.6201
608.000000, 71.094, -173.0906
615.000000, 71.082, -172.6196
622.000000, 71.076, -172.1310
630.000000, 71.070, -171.5698
640.000000, 71.059, -170.8568
650.000000, 71.054, -170.1287
660.000000, 71.045, -169.4188
670.000000, 71.035, -168.7775
680.000000, 71.033, -168.0902
690.000000, 71.040, -167.2999
700.000000, 71.048, -166.5364
710.000000, 71.061, -165.8198
720.000000, 71.064, -165.0785
730.000000, 71.060, -164.3273
740.000000, 71.070, -163.6471
750.000000, 71.086, -162.9316
762.000000, 71.102, -162.0395
775.000000, 71.124, -161.0701
788.000000, 71.159, -160.1168
800.000000, 71.192, -159.2674
812.000000, 71.228, -158.4157
825.000000, 71.267, -157.4949
838.000000, 71.311, -156.5739
850.000000, 71.356, -155.7315
862.000000, 71.404, -154.8917
875.000000, 71.463, -153.9950
885.000000, 71.514, -153.3345
900.000000, 71.595, -152.3533
912.000000, 71.660, -151.5811
925.000000, 71.732, -150.7762
938.000000, 71.804, -149.9922
950.000000, 71.876, -149.2836
962.000000, 71.952, -148.6022
975.000000, 72.037, -147.8967
988.000000, 72.124, -147.2234
1000.000000, 72.206, -146.6225
1015.000000, 72.316, -145.9125
1030.000000, 72.433, -145.2670
1044.000000, 72.539, -144.6935
1060.000000, 72.661, -144.0547
1075.000000, 72.786, -143.4752
1090.000000, 72.908, -142.9441
1106.000000, 73.028, -142.4518
1120.000000, 73.134, -142.0734
1138.000000, 73.270, -141.6165
1150.000000, 73.362, -141.3320
1172.000000, 73.529, -140.8534
1180.000000, 73.588, -140.6917
1206.000000, 73.778, -140.2120
1220.000000, 73.875, -139.9681
1241.000000, 74.016, -139.6370
1250.000000, 74.077, -139.5024
1265.000000, 74.178, -139.2816
1280.000000, 74.280, -139.0701
1315.000000, 74.518, -138.6194
1320.000000, 74.551, -138.5575
1340.000000, 74.682, -138.3149
1360.000000, 74.811, -138.0753
1380.000000, 74.939, -137.8405
1400.000000, 75.066, -137.6113
1430.000000, 75.253, -137.2732
1450.000000, 75.377, -137.0526
1475.000000, 75.533, -136.7872
1500.000000, 75.686, -136.5265
1525.000000, 75.839, -136.2724
1550.000000, 75.994, -136.0293
1575.000000, 76.152, -135.8013
1600.000000, 76.312, -135.5845
1625.000000, 76.471, -135.3846
1650.000000, 76.630, -135.2017
1675.000000, 76.791, -135.0403
1700.000000, 76.959, -134.9074
1725.000000, 77.129, -134.8073
1750.000000, 77.298, -134.7299
1775.000000, 77.468, -134.6845
1800.000000, 77.640, -134.6737
1825.000000, 77.813, -134.7007
1850.000000, 77.988, -134.7693
1875.000000, 78.164, -134.8788
1900.000000, 78.339, -135.0267
1925.000000, 78.519, -135.2220
1950.000000, 78.701, -135.4680
1975.000000, 78.883, -135.7647
2000.000000, 79.065, -136.1141
2030.000000, 79.282, -136.6050
2060.000000, 79.495, -137.1772
2090.000000, 79.703, -137.8312
2120.000000, 79.901, -138.5660
2140.000000, 80.030, -139.1028
2180.000000, 80.280, -140.2890
2200.000000, 80.401, -140.9354
2240.000000, 80.632, -142.3301
2270.000000, 80.793, -143.4620
2300.000000, 80.941, -144.6573
2330.000000, 81.076, -145.9127
2360.000000, 81.195, -147.2149
2400.000000, 81.329, -149.0115
2430.000000, 81.412, -150.3951
2470.000000, 81.499, -152.2685
2500.000000, 81.545, -153.6917
2540.000000, 81.576, -155.5902
2580.000000, 81.572, -157.4532
2620.000000, 81.537, -159.2489
2650.000000, 81.492, -160.5383
2690.000000, 81.410, -162.1643
2720.000000, 81.334, -163.3038
2760.000000, 81.216, -164.7095
2800.000000, 81.081, -165.9774
2850.000000, 80.898, -167.3649
2900.000000, 80.705, -168.5336
2950.000000, 80.507, -169.4919
3000.000000, 80.304, -170.2453
3040.000000, 80.139, -170.7080
3070.000000, 80.016, -170.9784
3110.000000, 79.855, -171.2408
3150.000000, 79.699, -171.3959
3200.000000, 79.516, -171.4517
3250.000000, 79.344, -171.3676
3300.000000, 79.180, -171.1554
3350.000000, 79.025, -170.8278
3400.000000, 78.880, -170.3974
3450.000000, 78.747, -169.8736
3500.000000, 78.626, -169.2681
3550.000000, 78.515, -168.5886
3600.000000, 78.418, -167.8424
3650.000000, 78.334, -167.0365
3700.000000, 78.262, -166.1752
3750.000000, 78.204, -165.2656
3820.000000, 78.145, -163.9171
3870.000000, 78.119, -162.9006
3950.000000, 78.109, -161.1890
4000.000000, 78.117, -160.0754
4060.000000, 78.142, -158.7189
4120.000000, 78.190, -157.3848
4180.000000, 78.268, -156.1315
4250.000000, 78.388, -154.8256
4310.000000, 78.508, -153.8382
4370.000000, 78.638, -152.9450
4440.000000, 78.807, -151.9908
4500.000000, 78.968, -151.2365
4550.000000, 79.116, -150.6589
4620.000000, 79.345, -149.9551
4680.000000, 79.562, -149.4796
4750.000000, 79.840, -149.1189
4820.000000, 80.143, -149.0064
4870.000000, 80.373, -149.0943
4940.000000, 80.710, -149.4787
5000.000000, 81.016, -150.0832
5080.000000, 81.440, -151.3497
5150.000000, 81.809, -152.9406
5220.000000, 82.154, -155.0056
5300.000000, 82.498, -157.9397
5380.000000, 82.765, -161.4236
5450.000000, 82.917, -164.8268
5520.000000, 82.980, -168.4423
5600.000000, 82.934, -172.6596
5700.000000, 82.701, -177.7295
5800.000000, 82.297, 177.7858
5900.000000, 81.767, 174.1501
6000.000000, 81.161, 171.4939
6080.000000, 80.652, 170.0716
6150.000000, 80.207, 169.3012
6220.000000, 79.773, 168.9300
6300.000000, 79.297, 168.9343
6400.000000, 78.741, 169.4809
6500.000000, 78.238, 170.5133
6600.000000, 77.794, 171.9263
6700.000000, 77.410, 173.6344
6800.000000, 77.088, 175.5698
6900.000000, 76.827, 177.6766
7000.000000, 76.625, 179.9047
7100.000000, 76.484, -177.8028
7200.000000, 76.403, -175.4997
7300.000000, 76.375, -173.2055
7400.000000, 76.401, -170.9103
7500.000000, 76.487, -168.6113
7620.000000, 76.683, -165.8813
7750.000000, 77.031, -163.0742
7880.000000, 77.545, -160.6224
8000.000000, 78.187, -158.9429
8120.000000, 79.003, -158.2239
8250.000000, 80.097, -159.2597
8380.000000, 81.345, -163.2669
8500.000000, 82.449, -170.5569
8620.000000, 83.207, 178.5688
8750.000000, 83.293, 164.3117
8850.000000, 82.746, 153.5047
9000.000000, 81.148, 140.6719
9120.000000, 79.530, 134.3226
9250.000000, 77.753, 130.9667
9380.000000, 76.116, 130.2719
9500.000000, 74.774, 131.1965
9620.000000, 73.592, 133.1027
9750.000000, 72.480, 135.8965
9880.000000, 71.523, 139.1885
10000.000000, 70.758, 142.5200
10150.000000, 69.943, 146.9385
10300.000000, 69.274, 151.5204
10440.000000, 68.771, 155.8562
10600.000000, 68.335, 160.7917
10750.000000, 68.055, 165.3135
10900.000000, 67.900, 169.6404
11060.000000, 67.880, 173.9130
11200.000000, 67.985, 177.2187
11380.000000, 68.290, -179.4021
11500.000000, 68.598, -177.9151
11720.000000, 69.336, -177.5015
11800.000000, 69.634, -178.3172
12060.000000, 70.452, 174.7203
12200.000000, 70.594, 168.4466
12410.000000, 70.142, 157.5200
12500.000000, 69.687, 153.0388
12650.000000, 68.641, 146.7551
12800.000000, 67.352, 142.4876
13150.000000, 64.116, 140.3600
13200.000000, 63.674, 140.7654
13400.000000, 62.017, 143.6056
13600.000000, 60.546, 147.8703
13800.000000, 59.256, 153.0889
14000.000000, 58.131, 158.9630
14300.000000, 56.726, 168.6314
14500.000000, 55.976, 175.4431
14750.000000, 55.244, -175.8749
15000.000000, 54.730, -167.1750
15250.000000, 54.439, -158.6138
15500.000000, 54.389, -150.4090
15750.000000, 54.614, -142.8948
16000.000000, 55.174, -136.6308
16250.000000, 56.106, -132.6417
16500.000000, 57.301, -132.5421
16750.000000, 58.424, -137.9707
17000.000000, 58.911, -148.7860
17250.000000, 58.292, -161.6016
17500.000000, 56.603, -171.6316
17750.000000, 54.313, -176.2072
18000.000000, 51.899, -175.5243
18250.000000, 49.632, -170.7043
18500.000000, 47.667, -162.9115
18750.000000, 46.071, -153.6995
19000.000000, 44.781, -144.0999
19250.000000, 43.711, -134.3930
19500.000000, 42.838, -124.5999
19750.000000, 42.209, -115.3028
20000.000000, 41.898, -108.7529
