* Measurement data measured by REW V5.31.1
* Source: CUBILUX HLMS-C5 MIC IN, MICROPHONE, R, volume: 1.000
* Format: 4M Log Swept Sine, 1 sweep at -40.0 dBFS with no timing reference
* Dated: Sep 13, 2024 10:24:45 PM
* REW Settings:
*  C-weighting compensation: Off
*  Target level: 75.0 dB
* Note: ; 
* Measurement: KZ Krila DDDD R
* Smoothing: 1/24 octave
* Frequency Step: 1/48 octave
* Start Frequency: 1.000 Hz
*
* Freq(Hz), SPL(dB), Phase(degrees)
1.000000, 52.477, 12.9139
1.015000, 52.660, 9.5704
1.030000, 52.845, 6.5499
1.044000, 53.018, 3.9865
1.060000, 53.215, 1.3202
1.075000, 53.398, -0.9593
1.090000, 53.579, -3.0594
1.106000, 53.773, -5.1534
1.120000, 53.953, -6.9174
1.138000, 54.200, -9.1257
1.150000, 54.375, -10.5626
1.172000, 54.715, -13.1202
1.180000, 54.843, -14.0244
1.206000, 55.278, -16.8627
1.220000, 55.521, -18.3243
1.241000, 55.893, -20.4243
1.250000, 56.055, -21.2893
1.265000, 56.326, -22.6828
1.280000, 56.599, -24.0148
1.315000, 57.231, -26.8765
1.320000, 57.320, -27.2566
1.340000, 57.672, -28.7038
1.360000, 58.015, -30.0329
1.380000, 58.344, -31.2423
1.400000, 58.656, -32.3312
1.430000, 59.087, -33.7366
1.450000, 59.346, -34.5233
1.475000, 59.633, -35.3696
1.500000, 59.889, -36.1483
1.525000, 60.119, -36.8974
1.550000, 60.325, -37.6148
1.575000, 60.512, -38.2930
1.600000, 60.681, -38.9243
1.625000, 60.835, -39.5005
1.650000, 60.979, -40.0134
1.675000, 61.113, -40.4546
1.700000, 61.242, -40.8158
1.725000, 61.368, -41.0889
1.750000, 61.494, -41.2661
1.775000, 61.623, -41.3400
1.800000, 61.757, -41.3040
1.825000, 61.898, -41.1562
1.850000, 62.041, -40.9086
1.875000, 62.177, -40.5829
1.900000, 62.305, -40.1894
1.925000, 62.427, -39.7322
1.950000, 62.545, -39.2149
1.975000, 62.660, -38.6413
2.000000, 62.776, -38.0158
2.030000, 62.918, -37.2038
2.060000, 63.066, -36.3341
2.090000, 63.226, -35.4186
2.120000, 63.400, -34.4701
2.140000, 63.525, -33.8265
2.180000, 63.805, -32.5272
2.200000, 63.960, -31.8690
2.240000, 64.300, -30.4888
2.270000, 64.577, -29.3943
2.300000, 64.870, -28.2792
2.330000, 65.177, -27.1753
2.360000, 65.496, -26.1112
2.400000, 65.934, -24.7980
2.430000, 66.269, -23.9195
2.470000, 66.722, -22.9221
2.500000, 67.063, -22.3204
2.540000, 67.514, -21.7243
2.580000, 67.965, -21.3261
2.620000, 68.425, -21.0212
2.650000, 68.778, -20.8321
2.690000, 69.256, -20.6481
2.720000, 69.618, -20.5734
2.760000, 70.100, -20.5729
2.800000, 70.577, -20.6977
2.850000, 71.160, -21.0451
2.900000, 71.718, -21.6154
2.950000, 72.249, -22.3885
3.000000, 72.761, -23.2870
3.040000, 73.158, -24.0637
3.070000, 73.450, -24.6751
3.110000, 73.830, -25.5262
3.150000, 74.199, -26.4171
3.200000, 74.644, -27.5871
3.250000, 75.071, -28.8230
3.300000, 75.479, -30.1316
3.350000, 75.867, -31.5170
3.400000, 76.236, -32.9636
3.450000, 76.587, -34.4462
3.500000, 76.921, -35.9440
3.550000, 77.238, -37.4424
3.600000, 77.541, -38.9326
3.650000, 77.830, -40.4160
3.700000, 78.103, -41.9156
3.750000, 78.360, -43.4533
3.820000, 78.694, -45.6442
3.870000, 78.915, -47.2044
3.950000, 79.243, -49.6374
4.000000, 79.433, -51.0989
4.060000, 79.646, -52.8074
4.120000, 79.841, -54.5154
4.180000, 80.017, -56.2242
4.250000, 80.203, -58.1808
4.310000, 80.349, -59.7910
4.370000, 80.484, -61.3147
4.440000, 80.627, -62.9931
4.500000, 80.735, -64.3856
4.550000, 80.816, -65.5178
4.620000, 80.918, -67.0444
4.680000, 80.999, -68.2802
4.750000, 81.088, -69.6155
4.820000, 81.172, -70.8355
4.870000, 81.226, -71.6490
4.940000, 81.296, -72.7189
5.000000, 81.354, -73.5771
5.080000, 81.434, -74.6403
5.150000, 81.509, -75.4890
5.220000, 81.588, -76.2513
5.300000, 81.680, -77.0336
5.380000, 81.777, -77.7603
5.450000, 81.868, -78.3803
5.520000, 81.968, -78.9942
5.600000, 82.090, -79.6684
5.700000, 82.255, -80.4843
5.800000, 82.426, -81.3328
5.900000, 82.600, -82.2624
6.000000, 82.781, -83.2579
6.080000, 82.926, -84.0915
6.150000, 83.050, -84.8510
6.220000, 83.168, -85.6446
6.300000, 83.296, -86.6014
6.400000, 83.447, -87.8608
6.500000, 83.586, -89.1469
6.600000, 83.707, -90.4264
6.700000, 83.809, -91.7146
6.800000, 83.894, -93.0043
6.900000, 83.964, -94.2387
7.000000, 84.019, -95.3806
7.100000, 84.058, -96.4455
7.200000, 84.087, -97.4282
7.300000, 84.112, -98.2960
7.400000, 84.136, -99.0268
7.500000, 84.158, -99.6322
7.620000, 84.193, -100.2292
7.750000, 84.255, -100.7339
7.880000, 84.342, -101.0927
8.000000, 84.446, -101.3910
8.120000, 84.579, -101.7323
8.250000, 84.754, -102.1501
8.380000, 84.949, -102.7029
8.500000, 85.140, -103.3993
8.620000, 85.340, -104.2588
8.750000, 85.553, -105.3732
8.850000, 85.705, -106.3736
9.000000, 85.916, -108.0851
9.120000, 86.060, -109.5710
9.250000, 86.184, -111.2738
9.380000, 86.274, -113.0567
9.500000, 86.327, -114.6905
9.620000, 86.350, -116.2796
9.750000, 86.340, -117.9440
9.880000, 86.296, -119.4686
10.000000, 86.224, -120.7105
10.150000, 86.101, -122.0352
10.300000, 85.962, -123.0477
10.440000, 85.825, -123.6847
10.600000, 85.681, -124.0929
10.750000, 85.578, -124.1889
10.900000, 85.510, -124.0700
11.060000, 85.488, -123.8468
11.200000, 85.512, -123.6252
11.380000, 85.591, -123.4598
11.500000, 85.669, -123.4784
11.720000, 85.841, -123.8295
11.800000, 85.905, -124.0742
12.060000, 86.102, -125.2408
12.200000, 86.186, -126.0590
12.410000, 86.278, -127.4429
12.500000, 86.304, -128.0553
12.650000, 86.331, -129.0782
12.800000, 86.337, -130.0505
13.150000, 86.278, -131.8963
13.200000, 86.265, -132.0958
13.400000, 86.207, -132.7108
13.600000, 86.158, -133.0498
13.800000, 86.135, -133.1494
14.000000, 86.150, -133.1161
14.300000, 86.252, -133.0595
14.500000, 86.367, -133.1972
14.750000, 86.536, -133.7115
15.000000, 86.703, -134.6550
15.250000, 86.833, -135.9796
15.500000, 86.903, -137.5360
15.750000, 86.900, -139.1385
16.000000, 86.828, -140.5726
16.250000, 86.707, -141.6515
16.500000, 86.567, -142.2646
16.750000, 86.447, -142.4024
17.000000, 86.382, -142.2076
17.250000, 86.388, -141.9149
17.500000, 86.461, -141.7880
17.750000, 86.571, -142.0150
18.000000, 86.680, -142.6407
18.250000, 86.755, -143.5894
18.500000, 86.777, -144.6853
18.750000, 86.742, -145.7278
19.000000, 86.666, -146.5395
19.250000, 86.578, -147.0124
19.500000, 86.510, -147.1652
19.750000, 86.490, -147.1224
20.000000, 86.526, -147.0884
20.299999, 86.626, -147.3283
20.600000, 86.743, -148.0290
20.900000, 86.824, -149.1376
21.200001, 86.837, -150.4223
21.400000, 86.806, -151.2256
21.799999, 86.680, -152.3748
22.000000, 86.610, -152.6441
22.400000, 86.522, -152.6609
22.700001, 86.532, -152.4932
23.000000, 86.599, -152.4660
23.299999, 86.693, -152.7392
23.600000, 86.777, -153.3152
24.000000, 86.832, -154.3295
24.299999, 86.827, -155.0573
24.700001, 86.786, -155.7540
25.000000, 86.756, -156.0430
25.400000, 86.744, -156.2418
25.799999, 86.766, -156.4341
26.200001, 86.801, -156.7566
26.500000, 86.821, -157.0799
26.900000, 86.830, -157.5448
27.200001, 86.827, -157.8675
27.600000, 86.817, -158.2289
28.000000, 86.809, -158.5266
28.500000, 86.809, -158.8757
29.000000, 86.815, -159.2622
29.500000, 86.821, -159.7050
30.000000, 86.823, -160.1869
30.400000, 86.820, -160.5800
30.700001, 86.815, -160.8686
31.100000, 86.809, -161.2367
31.500000, 86.803, -161.5839
32.000000, 86.800, -161.9960
32.500000, 86.799, -162.3940
33.000000, 86.801, -162.7779
33.500000, 86.804, -163.1395
34.000000, 86.809, -163.4781
34.500000, 86.818, -163.8082
35.000000, 86.827, -164.1486
35.500000, 86.833, -164.5025
36.000000, 86.833, -164.8521
36.500000, 86.826, -165.1726
37.000000, 86.816, -165.4528
37.500000, 86.806, -165.6992
38.200001, 86.795, -166.0119
38.700001, 86.790, -166.2320
39.500000, 86.787, -166.6285
40.000000, 86.782, -166.9096
40.599998, 86.769, -167.2371
41.200001, 86.757, -167.5147
41.799999, 86.754, -167.7718
42.500000, 86.758, -168.1276
43.099998, 86.756, -168.4769
43.700001, 86.748, -168.8074
44.400002, 86.736, -169.1329
45.000000, 86.728, -169.3794
45.500000, 86.723, -169.5723
46.200001, 86.717, -169.8215
46.799999, 86.715, -170.0234
47.500000, 86.714, -170.2639
48.200001, 86.712, -170.5010
48.700001, 86.712, -170.6623
49.400002, 86.717, -170.9094
50.000000, 86.721, -171.1751
50.799999, 86.711, -171.5581
51.500000, 86.694, -171.8275
52.200001, 86.682, -172.0450
53.000000, 86.673, -172.3089
53.799999, 86.658, -172.5637
54.500000, 86.647, -172.7460
55.200001, 86.642, -172.9126
56.000000, 86.642, -173.1014
57.000000, 86.653, -173.3971
58.000000, 86.656, -173.8334
59.000000, 86.630, -174.2188
60.000000, 86.606, -174.4107
60.799999, 86.603, -174.5369
61.500000, 86.606, -174.7046
62.200001, 86.605, -174.9148
63.000000, 86.597, -175.1559
64.000000, 86.582, -175.4094
65.000000, 86.572, -175.6428
66.000000, 86.563, -175.9044
67.000000, 86.550, -176.1413
68.000000, 86.543, -176.3670
69.000000, 86.532, -176.6160
70.000000, 86.521, -176.8038
71.000000, 86.521, -177.0002
72.000000, 86.517, -177.2686
73.000000, 86.504, -177.5059
74.000000, 86.493, -177.6987
75.000000, 86.484, -177.8976
76.199997, 86.470, -178.1187
77.500000, 86.456, -178.3558
78.800003, 86.439, -178.5864
80.000000, 86.424, -178.8069
81.199997, 86.406, -179.0271
82.500000, 86.391, -179.2471
83.800003, 86.377, -179.4981
85.000000, 86.363, -179.7048
86.199997, 86.351, -179.9016
87.500000, 86.334, 179.9012
88.500000, 86.323, 179.7870
90.000000, 86.309, 179.5964
91.199997, 86.297, 179.4410
92.500000, 86.284, 179.2511
93.800003, 86.267, 179.0644
95.000000, 86.253, 178.9130
96.199997, 86.237, 178.7662
97.500000, 86.219, 178.6324
98.800003, 86.203, 178.5245
100.000000, 86.195, 178.3785
101.500000, 86.174, 178.0854
103.000000, 86.150, 177.8784
104.400002, 86.139, 177.6632
106.000000, 86.125, 177.4255
107.500000, 86.112, 177.2551
109.000000, 86.096, 177.1003
110.599998, 86.070, 176.9584
112.000000, 86.046, 176.8346
113.800003, 86.017, 176.6658
115.000000, 86.001, 176.5337
117.199997, 85.974, 176.2985
118.000000, 85.965, 176.2271
120.599998, 85.937, 176.0028
122.000000, 85.920, 175.8877
124.099998, 85.891, 175.7064
125.000000, 85.878, 175.6388
126.500000, 85.859, 175.5345
128.000000, 85.843, 175.4196
131.500000, 85.805, 175.1010
132.000000, 85.799, 175.0563
134.000000, 85.775, 174.9085
136.000000, 85.754, 174.7888
138.000000, 85.733, 174.6789
140.000000, 85.712, 174.5648
143.000000, 85.675, 174.4024
145.000000, 85.651, 174.3067
147.500000, 85.621, 174.1622
150.000000, 85.590, 174.0224
152.500000, 85.561, 173.9025
155.000000, 85.533, 173.7704
157.500000, 85.499, 173.6810
160.000000, 85.469, 173.6154
162.500000, 85.437, 173.5142
165.000000, 85.401, 173.3969
167.500000, 85.363, 173.3141
170.000000, 85.327, 173.2569
172.500000, 85.292, 173.1899
175.000000, 85.256, 173.1287
177.500000, 85.220, 173.0706
180.000000, 85.183, 173.0216
182.500000, 85.147, 172.9592
185.000000, 85.110, 172.9131
187.500000, 85.074, 172.8940
190.000000, 85.037, 172.8777
192.500000, 84.999, 172.8553
195.000000, 84.962, 172.8344
197.500000, 84.923, 172.8178
200.000000, 84.886, 172.8179
203.000000, 84.844, 172.8052
206.000000, 84.798, 172.8202
209.000000, 84.748, 172.8837
212.000000, 84.696, 172.9571
214.000000, 84.662, 173.0114
218.000000, 84.596, 173.1660
220.000000, 84.562, 173.2687
224.000000, 84.494, 173.5351
227.000000, 84.448, 173.8093
230.000000, 84.412, 174.1539
233.000000, 84.389, 174.5753
236.000000, 84.388, 175.0298
240.000000, 84.424, 175.5248
243.000000, 84.469, 175.7033
247.000000, 84.523, 175.6556
250.000000, 84.545, 175.4732
254.000000, 84.548, 175.1782
258.000000, 84.530, 174.9144
262.000000, 84.499, 174.7115
265.000000, 84.470, 174.6095
269.000000, 84.430, 174.5420
272.000000, 84.400, 174.5178
276.000000, 84.358, 174.5009
280.000000, 84.316, 174.5084
285.000000, 84.265, 174.5507
290.000000, 84.219, 174.6366
295.000000, 84.173, 174.7341
300.000000, 84.124, 174.8490
304.000000, 84.089, 174.9484
307.000000, 84.064, 175.0187
311.000000, 84.033, 175.1172
315.000000, 84.001, 175.2402
320.000000, 83.960, 175.3948
325.000000, 83.920, 175.5526
330.000000, 83.883, 175.7292
335.000000, 83.848, 175.9041
340.000000, 83.813, 176.0839
345.000000, 83.781, 176.2715
350.000000, 83.750, 176.4598
355.000000, 83.718, 176.6439
360.000000, 83.686, 176.8378
365.000000, 83.657, 177.0506
370.000000, 83.629, 177.2557
375.000000, 83.599, 177.4509
382.000000, 83.560, 177.7362
387.000000, 83.533, 177.9618
395.000000, 83.494, 178.3171
400.000000, 83.468, 178.5329
406.000000, 83.439, 178.7939
412.000000, 83.409, 179.0580
418.000000, 83.381, 179.3300
425.000000, 83.352, 179.6570
431.000000, 83.327, 179.9337
437.000000, 83.302, -179.7899
444.000000, 83.271, -179.4764
450.000000, 83.249, -179.1826
455.000000, 83.233, -178.9230
462.000000, 83.209, -178.5747
468.000000, 83.188, -178.2887
475.000000, 83.164, -177.9480
482.000000, 83.142, -177.6021
487.000000, 83.125, -177.3534
494.000000, 83.104, -176.9936
500.000000, 83.087, -176.6862
508.000000, 83.066, -176.2831
515.000000, 83.050, -175.9270
522.000000, 83.033, -175.5683
530.000000, 83.016, -175.1546
538.000000, 82.999, -174.7302
545.000000, 82.985, -174.3604
552.000000, 82.972, -173.9884
560.000000, 82.959, -173.5578
570.000000, 82.943, -173.0272
580.000000, 82.928, -172.4917
590.000000, 82.915, -171.9498
600.000000, 82.902, -171.4100
608.000000, 82.893, -170.9547
615.000000, 82.887, -170.5615
622.000000, 82.881, -170.1733
630.000000, 82.873, -169.7193
640.000000, 82.864, -169.1333
650.000000, 82.854, -168.5077
660.000000, 82.852, -167.8302
670.000000, 82.867, -167.1366
680.000000, 82.891, -166.5509
690.000000, 82.907, -166.0399
700.000000, 82.915, -165.5136
710.000000, 82.923, -164.9585
720.000000, 82.933, -164.3880
730.000000, 82.944, -163.7982
740.000000, 82.959, -163.1952
750.000000, 82.975, -162.5876
762.000000, 82.998, -161.8462
775.000000, 83.027, -161.0302
788.000000, 83.060, -160.2142
800.000000, 83.092, -159.4592
812.000000, 83.125, -158.6806
825.000000, 83.167, -157.8208
838.000000, 83.218, -156.9487
850.000000, 83.276, -156.1632
862.000000, 83.343, -155.4271
875.000000, 83.422, -154.6877
885.000000, 83.483, -154.1587
900.000000, 83.576, -153.4036
912.000000, 83.650, -152.8291
925.000000, 83.734, -152.2254
938.000000, 83.819, -151.6385
950.000000, 83.900, -151.1136
962.000000, 83.984, -150.6119
975.000000, 84.077, -150.0983
988.000000, 84.173, -149.6139
1000.000000, 84.264, -149.1929
1015.000000, 84.381, -148.7047
1030.000000, 84.500, -148.2624
1044.000000, 84.614, -147.8918
1060.000000, 84.744, -147.5109
1075.000000, 84.864, -147.2001
1090.000000, 84.983, -146.9300
1106.000000, 85.107, -146.6833
1120.000000, 85.214, -146.5009
1138.000000, 85.350, -146.3047
1150.000000, 85.439, -146.1967
1172.000000, 85.596, -146.0415
1180.000000, 85.651, -145.9966
1206.000000, 85.826, -145.8919
1220.000000, 85.916, -145.8564
1241.000000, 86.049, -145.8213
1250.000000, 86.105, -145.8128
1265.000000, 86.198, -145.8096
1280.000000, 86.290, -145.8143
1315.000000, 86.496, -145.8393
1320.000000, 86.525, -145.8454
1340.000000, 86.636, -145.8726
1360.000000, 86.745, -145.8994
1380.000000, 86.851, -145.9291
1400.000000, 86.955, -145.9602
1430.000000, 87.107, -146.0104
1450.000000, 87.207, -146.0450
1475.000000, 87.329, -146.0916
1500.000000, 87.449, -146.1361
1525.000000, 87.569, -146.1842
1550.000000, 87.687, -146.2383
1575.000000, 87.805, -146.2982
1600.000000, 87.923, -146.3586
1625.000000, 88.042, -146.4264
1650.000000, 88.160, -146.5030
1675.000000, 88.279, -146.5899
1700.000000, 88.398, -146.6904
1725.000000, 88.517, -146.8035
1750.000000, 88.636, -146.9269
1775.000000, 88.755, -147.0672
1800.000000, 88.874, -147.2274
1825.000000, 88.994, -147.4056
1850.000000, 89.113, -147.5969
1875.000000, 89.232, -147.8091
1900.000000, 89.350, -148.0464
1925.000000, 89.467, -148.3056
1950.000000, 89.584, -148.5859
1975.000000, 89.700, -148.8931
2000.000000, 89.813, -149.2240
2030.000000, 89.948, -149.6490
2060.000000, 90.079, -150.1003
2090.000000, 90.207, -150.5792
2120.000000, 90.332, -151.0876
2140.000000, 90.413, -151.4418
2180.000000, 90.572, -152.1787
2200.000000, 90.648, -152.5613
2240.000000, 90.795, -153.3527
2270.000000, 90.900, -153.9656
2300.000000, 91.001, -154.5979
2330.000000, 91.099, -155.2466
2360.000000, 91.192, -155.9082
2400.000000, 91.309, -156.8116
2430.000000, 91.393, -157.5022
2470.000000, 91.497, -158.4353
2500.000000, 91.569, -159.1435
2540.000000, 91.656, -160.0992
2580.000000, 91.735, -161.0622
2620.000000, 91.807, -162.0293
2650.000000, 91.856, -162.7558
2690.000000, 91.916, -163.7254
2720.000000, 91.957, -164.4511
2760.000000, 92.006, -165.4101
2800.000000, 92.049, -166.3618
2850.000000, 92.097, -167.5493
2900.000000, 92.139, -168.7255
2950.000000, 92.174, -169.8953
3000.000000, 92.202, -171.0598
3040.000000, 92.220, -171.9826
3070.000000, 92.231, -172.6707
3110.000000, 92.244, -173.5841
3150.000000, 92.257, -174.4963
3200.000000, 92.276, -175.6407
3250.000000, 92.292, -176.7913
3300.000000, 92.302, -177.9548
3350.000000, 92.308, -179.1299
3400.000000, 92.308, 179.6838
3450.000000, 92.302, 178.4841
3500.000000, 92.288, 177.2717
3550.000000, 92.268, 176.0438
3600.000000, 92.240, 174.8026
3650.000000, 92.203, 173.5480
3700.000000, 92.158, 172.2829
3750.000000, 92.104, 171.0062
3820.000000, 92.013, 169.1933
3870.000000, 91.936, 167.8696
3950.000000, 91.781, 165.7065
4000.000000, 91.653, 164.3463
4060.000000, 91.460, 162.7393
4120.000000, 91.233, 161.1868
4180.000000, 90.978, 159.7150
4250.000000, 90.652, 158.1278
4310.000000, 90.349, 156.8973
4370.000000, 90.026, 155.8078
4440.000000, 89.627, 154.7336
4500.000000, 89.267, 153.9951
4550.000000, 88.957, 153.5173
4620.000000, 88.508, 153.0756
4680.000000, 88.114, 152.9281
4750.000000, 87.644, 153.0488
4820.000000, 87.168, 153.5347
4870.000000, 86.831, 154.1362
4940.000000, 86.377, 155.3614
5000.000000, 86.024, 156.7549
5080.000000, 85.636, 158.9690
5150.000000, 85.378, 161.0114
5220.000000, 85.180, 162.9547
5300.000000, 84.997, 164.9744
5380.000000, 84.835, 166.8235
5450.000000, 84.703, 168.3678
5520.000000, 84.580, 169.8824
5600.000000, 84.450, 171.5949
5700.000000, 84.305, 173.7151
5800.000000, 84.178, 175.8091
5900.000000, 84.065, 177.8904
6000.000000, 83.963, 179.9737
6080.000000, 83.888, -178.3363
6150.000000, 83.827, -176.8212
6220.000000, 83.771, -175.2579
6300.000000, 83.716, -173.4047
6400.000000, 83.660, -170.9811
6500.000000, 83.628, -168.4364
6600.000000, 83.627, -165.7768
6700.000000, 83.665, -163.0167
6800.000000, 83.744, -160.1674
6900.000000, 83.871, -157.2422
7000.000000, 84.053, -154.2782
7100.000000, 84.295, -151.3264
7200.000000, 84.602, -148.4370
7300.000000, 84.976, -145.6433
7400.000000, 85.423, -142.9802
7500.000000, 85.952, -140.5027
7620.000000, 86.713, -137.9128
7750.000000, 87.715, -135.8381
7880.000000, 88.921, -134.9857
8000.000000, 90.216, -135.9381
8120.000000, 91.634, -139.4491
8250.000000, 93.123, -147.2087
8380.000000, 94.196, -159.3696
8500.000000, 94.465, -173.0439
8620.000000, 93.928, 173.6770
8750.000000, 92.651, 162.5156
8850.000000, 91.433, 156.9365
9000.000000, 89.600, 152.8652
9120.000000, 88.290, 152.2677
9250.000000, 87.079, 153.2589
9380.000000, 86.074, 155.2844
9500.000000, 85.306, 157.7170
9620.000000, 84.675, 160.4980
9750.000000, 84.136, 163.6891
9880.000000, 83.722, 166.8493
10000.000000, 83.431, 169.7504
10150.000000, 83.190, 173.1918
10300.000000, 83.063, 176.2464
10440.000000, 83.027, 178.6302
10600.000000, 83.047, -179.2946
10750.000000, 83.091, -177.9689
10900.000000, 83.132, -177.1583
11060.000000, 83.151, -176.7354
11200.000000, 83.140, -176.6132
11380.000000, 83.085, -176.6110
11500.000000, 83.032, -176.6348
11720.000000, 82.918, -176.6303
11800.000000, 82.880, -176.6026
12060.000000, 82.816, -176.5819
12200.000000, 82.832, -176.8304
12410.000000, 82.915, -178.0213
12500.000000, 82.958, -178.9582
12650.000000, 83.001, 178.8295
12800.000000, 82.953, 175.8748
13150.000000, 82.206, 167.9800
13200.000000, 82.021, 166.9989
13400.000000, 81.136, 164.0356
13600.000000, 80.129, 162.9407
13800.000000, 79.139, 163.6145
14000.000000, 78.259, 165.6203
14300.000000, 77.258, 169.9512
14500.000000, 76.831, 172.5093
14750.000000, 76.308, 173.0449
15000.000000, 74.961, 174.6994
15250.000000, 73.866, -172.4625
15500.000000, 74.235, -161.1378
15750.000000, 75.105, -154.7751
16000.000000, 76.216, -151.6405
16250.000000, 77.494, -152.0622
16500.000000, 78.695, -156.5189
16750.000000, 79.532, -164.5128
17000.000000, 79.829, -174.4592
17250.000000, 79.616, 175.3450
17500.000000, 79.038, 165.6456
17750.000000, 78.181, 156.2072
18000.000000, 76.983, 146.7655
18250.000000, 75.284, 137.9505
18500.000000, 72.962, 131.7787
18750.000000, 70.115, 131.9156
19000.000000, 67.500, 141.6024
19250.000000, 66.202, 152.6232
19500.000000, 65.496, 156.3448
19750.000000, 64.414, 157.7942
20000.000000, 63.474, 160.5543
