* Measurement data measured by REW V5.31.3
* Source: Frequency response averaged data
* Format: Averaged data produced from the rms magnitudes of Gizaudio DaVinci (R) 1, Gizaudio DaVinci (R) 2, Gizaudio DaVinci (R) 3
* Dated: Aug 8, 2024 7:29:27 AM
* REW Settings:
*  C-weighting compensation: Off
*  Target level: 75.0 dB
* Note: ; Averaged data produced from the rms magnitudes of Gizaudio DaVinci (R) 1, Gizaudio DaVinci (R) 2, Gizaudio DaVinci (R) 3
* Measurement: Gizaudio DaVinci S&S R
* Smoothing: 1/24 octave
* Frequency Step: 1/48 octave
* Start Frequency: 2.200 Hz
*
* Freq(Hz), SPL(dB)
2.200000, 96.190
2.240000, 96.395
2.270000, 96.582
2.300000, 96.767
2.330000, 96.947
2.360000, 97.122
2.400000, 97.350
2.430000, 97.515
2.470000, 97.730
2.500000, 97.887
2.540000, 98.090
2.580000, 98.287
2.620000, 98.477
2.650000, 98.615
2.690000, 98.793
2.720000, 98.921
2.760000, 99.088
2.800000, 99.249
2.850000, 99.442
2.900000, 99.627
2.950000, 99.805
3.000000, 99.973
3.040000, 100.102
3.070000, 100.196
3.110000, 100.316
3.150000, 100.432
3.200000, 100.571
3.250000, 100.704
3.300000, 100.832
3.350000, 100.954
3.400000, 101.070
3.450000, 101.180
3.500000, 101.285
3.550000, 101.386
3.600000, 101.484
3.650000, 101.578
3.700000, 101.669
3.750000, 101.757
3.820000, 101.874
3.870000, 101.954
3.950000, 102.078
4.000000, 102.154
4.060000, 102.243
4.120000, 102.330
4.180000, 102.416
4.250000, 102.513
4.310000, 102.596
4.370000, 102.677
4.440000, 102.771
4.500000, 102.852
4.550000, 102.918
4.620000, 103.010
4.680000, 103.088
4.750000, 103.178
4.820000, 103.267
4.870000, 103.330
4.940000, 103.417
5.000000, 103.491
5.080000, 103.586
5.150000, 103.668
5.220000, 103.747
5.300000, 103.835
5.380000, 103.920
5.450000, 103.991
5.520000, 104.059
5.600000, 104.134
5.700000, 104.223
5.800000, 104.306
5.900000, 104.384
6.000000, 104.458
6.080000, 104.513
6.150000, 104.560
6.220000, 104.605
6.300000, 104.654
6.400000, 104.714
6.500000, 104.772
6.600000, 104.828
6.700000, 104.883
6.800000, 104.937
6.900000, 104.991
7.000000, 105.044
7.100000, 105.097
7.200000, 105.149
7.300000, 105.201
7.400000, 105.253
7.500000, 105.303
7.620000, 105.362
7.750000, 105.424
7.880000, 105.483
8.000000, 105.535
8.120000, 105.585
8.250000, 105.636
8.380000, 105.684
8.500000, 105.725
8.620000, 105.765
8.750000, 105.805
8.850000, 105.835
9.000000, 105.878
9.120000, 105.911
9.250000, 105.945
9.380000, 105.978
9.500000, 106.007
9.620000, 106.035
9.750000, 106.065
9.880000, 106.093
10.000000, 106.118
10.150000, 106.148
10.300000, 106.177
10.440000, 106.203
10.600000, 106.232
10.750000, 106.258
10.900000, 106.284
11.060000, 106.311
11.200000, 106.334
11.380000, 106.363
11.500000, 106.382
11.720000, 106.416
11.800000, 106.428
12.060000, 106.466
12.200000, 106.485
12.410000, 106.514
12.500000, 106.525
12.650000, 106.544
12.800000, 106.562
13.150000, 106.602
13.200000, 106.607
13.400000, 106.628
13.600000, 106.647
13.800000, 106.665
14.000000, 106.682
14.300000, 106.705
14.500000, 106.720
14.750000, 106.736
15.000000, 106.753
15.250000, 106.769
15.500000, 106.786
15.750000, 106.802
16.000000, 106.817
16.250000, 106.829
16.500000, 106.840
16.750000, 106.848
17.000000, 106.854
17.250000, 106.858
17.500000, 106.862
17.750000, 106.866
18.000000, 106.871
18.250000, 106.877
18.500000, 106.883
18.750000, 106.890
19.000000, 106.896
19.250000, 106.901
19.500000, 106.905
19.750000, 106.908
20.000000, 106.911
20.299999, 106.916
20.600000, 106.923
20.900000, 106.931
21.200001, 106.941
21.400000, 106.947
21.799999, 106.956
22.000000, 106.958
22.400000, 106.957
22.700001, 106.952
23.000000, 106.946
23.299999, 106.940
23.600000, 106.935
24.000000, 106.933
24.299999, 106.933
24.700001, 106.934
25.000000, 106.935
25.400000, 106.935
25.799999, 106.932
26.200001, 106.928
26.500000, 106.924
26.900000, 106.917
27.200001, 106.913
27.600000, 106.908
28.000000, 106.903
28.500000, 106.899
29.000000, 106.893
29.500000, 106.886
30.000000, 106.874
30.400000, 106.864
30.700001, 106.855
31.100000, 106.843
31.500000, 106.832
32.000000, 106.821
32.500000, 106.811
33.000000, 106.801
33.500000, 106.789
34.000000, 106.775
34.500000, 106.760
35.000000, 106.745
35.500000, 106.731
36.000000, 106.716
36.500000, 106.701
37.000000, 106.687
37.500000, 106.672
38.200001, 106.650
38.700001, 106.632
39.500000, 106.603
40.000000, 106.584
40.599998, 106.560
41.200001, 106.534
41.799999, 106.509
42.500000, 106.483
43.099998, 106.464
43.700001, 106.446
44.400002, 106.426
45.000000, 106.407
45.500000, 106.390
46.200001, 106.362
46.799999, 106.336
47.500000, 106.307
48.200001, 106.278
48.700001, 106.258
49.400002, 106.229
50.000000, 106.205
50.799999, 106.171
51.500000, 106.141
52.200001, 106.110
53.000000, 106.075
53.799999, 106.041
54.500000, 106.011
55.200001, 105.981
56.000000, 105.947
57.000000, 105.903
58.000000, 105.857
59.000000, 105.811
60.000000, 105.765
60.799999, 105.728
61.500000, 105.695
62.200001, 105.662
63.000000, 105.624
64.000000, 105.577
65.000000, 105.529
66.000000, 105.481
67.000000, 105.432
68.000000, 105.383
69.000000, 105.333
70.000000, 105.283
71.000000, 105.233
72.000000, 105.182
73.000000, 105.132
74.000000, 105.081
75.000000, 105.030
76.199997, 104.969
77.500000, 104.903
78.800003, 104.836
80.000000, 104.774
81.199997, 104.711
82.500000, 104.643
83.800003, 104.575
85.000000, 104.511
86.199997, 104.448
87.500000, 104.379
88.500000, 104.326
90.000000, 104.246
91.199997, 104.183
92.500000, 104.113
93.800003, 104.043
95.000000, 103.979
96.199997, 103.914
97.500000, 103.843
98.800003, 103.773
100.000000, 103.708
101.500000, 103.627
103.000000, 103.546
104.400002, 103.470
106.000000, 103.384
107.500000, 103.303
109.000000, 103.222
110.599998, 103.137
112.000000, 103.061
113.800003, 102.964
115.000000, 102.899
117.199997, 102.780
118.000000, 102.736
120.599998, 102.595
122.000000, 102.520
124.099998, 102.410
125.000000, 102.363
126.500000, 102.284
128.000000, 102.205
131.500000, 102.019
132.000000, 101.993
134.000000, 101.887
136.000000, 101.781
138.000000, 101.673
140.000000, 101.564
143.000000, 101.396
145.000000, 101.282
147.500000, 101.141
150.000000, 101.014
152.500000, 100.915
155.000000, 100.850
157.500000, 100.805
160.000000, 100.756
162.500000, 100.689
165.000000, 100.604
167.500000, 100.509
170.000000, 100.410
172.500000, 100.311
175.000000, 100.212
177.500000, 100.117
180.000000, 100.026
182.500000, 99.938
185.000000, 99.854
187.500000, 99.773
190.000000, 99.694
192.500000, 99.617
195.000000, 99.543
197.500000, 99.472
200.000000, 99.403
203.000000, 99.323
206.000000, 99.247
209.000000, 99.174
212.000000, 99.104
214.000000, 99.059
218.000000, 98.975
220.000000, 98.935
224.000000, 98.859
227.000000, 98.805
230.000000, 98.756
233.000000, 98.709
236.000000, 98.665
240.000000, 98.611
243.000000, 98.573
247.000000, 98.527
250.000000, 98.495
254.000000, 98.456
258.000000, 98.421
262.000000, 98.390
265.000000, 98.368
269.000000, 98.342
272.000000, 98.324
276.000000, 98.303
280.000000, 98.285
285.000000, 98.265
290.000000, 98.249
295.000000, 98.235
300.000000, 98.225
304.000000, 98.218
307.000000, 98.214
311.000000, 98.209
315.000000, 98.205
320.000000, 98.201
325.000000, 98.199
330.000000, 98.198
335.000000, 98.198
340.000000, 98.198
345.000000, 98.199
350.000000, 98.201
355.000000, 98.203
360.000000, 98.205
365.000000, 98.207
370.000000, 98.209
375.000000, 98.211
382.000000, 98.214
387.000000, 98.216
395.000000, 98.218
400.000000, 98.219
406.000000, 98.219
412.000000, 98.220
418.000000, 98.219
425.000000, 98.219
431.000000, 98.218
437.000000, 98.216
444.000000, 98.214
450.000000, 98.212
455.000000, 98.211
462.000000, 98.208
468.000000, 98.204
475.000000, 98.200
482.000000, 98.194
487.000000, 98.189
494.000000, 98.181
500.000000, 98.173
508.000000, 98.160
515.000000, 98.148
522.000000, 98.134
530.000000, 98.117
538.000000, 98.099
545.000000, 98.083
552.000000, 98.067
560.000000, 98.048
570.000000, 98.024
580.000000, 98.000
590.000000, 97.975
600.000000, 97.950
608.000000, 97.928
615.000000, 97.909
622.000000, 97.889
630.000000, 97.865
640.000000, 97.834
650.000000, 97.803
660.000000, 97.772
670.000000, 97.742
680.000000, 97.713
690.000000, 97.685
700.000000, 97.658
710.000000, 97.632
720.000000, 97.607
730.000000, 97.583
740.000000, 97.562
750.000000, 97.541
762.000000, 97.519
775.000000, 97.499
788.000000, 97.482
800.000000, 97.469
812.000000, 97.460
825.000000, 97.453
838.000000, 97.451
850.000000, 97.454
862.000000, 97.461
875.000000, 97.473
885.000000, 97.486
900.000000, 97.512
912.000000, 97.537
925.000000, 97.571
938.000000, 97.609
950.000000, 97.650
962.000000, 97.696
975.000000, 97.752
988.000000, 97.813
1000.000000, 97.875
1015.000000, 97.958
1030.000000, 98.049
1044.000000, 98.139
1060.000000, 98.249
1075.000000, 98.356
1090.000000, 98.465
1106.000000, 98.583
1120.000000, 98.685
1138.000000, 98.812
1150.000000, 98.894
1172.000000, 99.035
1180.000000, 99.083
1206.000000, 99.227
1220.000000, 99.298
1241.000000, 99.397
1250.000000, 99.436
1265.000000, 99.499
1280.000000, 99.559
1315.000000, 99.690
1320.000000, 99.708
1340.000000, 99.777
1360.000000, 99.845
1380.000000, 99.911
1400.000000, 99.977
1430.000000, 100.075
1450.000000, 100.142
1475.000000, 100.226
1500.000000, 100.313
1525.000000, 100.403
1550.000000, 100.496
1575.000000, 100.594
1600.000000, 100.696
1625.000000, 100.802
1650.000000, 100.913
1675.000000, 101.029
1700.000000, 101.150
1725.000000, 101.275
1750.000000, 101.405
1775.000000, 101.540
1800.000000, 101.679
1825.000000, 101.821
1850.000000, 101.968
1875.000000, 102.117
1900.000000, 102.268
1925.000000, 102.421
1950.000000, 102.576
1975.000000, 102.730
2000.000000, 102.884
2030.000000, 103.067
2060.000000, 103.247
2090.000000, 103.422
2120.000000, 103.592
2140.000000, 103.701
2180.000000, 103.911
2200.000000, 104.010
2240.000000, 104.199
2270.000000, 104.331
2300.000000, 104.456
2330.000000, 104.573
2360.000000, 104.684
2400.000000, 104.823
2430.000000, 104.921
2470.000000, 105.048
2500.000000, 105.139
2540.000000, 105.258
2580.000000, 105.374
2620.000000, 105.488
2650.000000, 105.570
2690.000000, 105.673
2720.000000, 105.744
2760.000000, 105.825
2800.000000, 105.884
2850.000000, 105.918
2900.000000, 105.896
2950.000000, 105.812
3000.000000, 105.673
3040.000000, 105.531
3070.000000, 105.411
3110.000000, 105.242
3150.000000, 105.068
3200.000000, 104.850
3250.000000, 104.635
3300.000000, 104.424
3350.000000, 104.217
3400.000000, 104.016
3450.000000, 103.822
3500.000000, 103.640
3550.000000, 103.472
3600.000000, 103.321
3650.000000, 103.186
3700.000000, 103.066
3750.000000, 102.961
3820.000000, 102.836
3870.000000, 102.764
3950.000000, 102.677
4000.000000, 102.640
4060.000000, 102.610
4120.000000, 102.594
4180.000000, 102.590
4250.000000, 102.607
4310.000000, 102.639
4370.000000, 102.683
4440.000000, 102.736
4500.000000, 102.767
4550.000000, 102.774
4620.000000, 102.743
4680.000000, 102.672
4750.000000, 102.534
4820.000000, 102.338
4870.000000, 102.165
4940.000000, 101.879
5000.000000, 101.600
5080.000000, 101.188
5150.000000, 100.800
5220.000000, 100.396
5300.000000, 99.929
5380.000000, 99.470
5450.000000, 99.086
5520.000000, 98.724
5600.000000, 98.345
5700.000000, 97.928
5800.000000, 97.580
5900.000000, 97.300
6000.000000, 97.090
6080.000000, 96.971
6150.000000, 96.902
6220.000000, 96.867
6300.000000, 96.866
6400.000000, 96.926
6500.000000, 97.050
6600.000000, 97.237
6700.000000, 97.484
6800.000000, 97.790
6900.000000, 98.150
7000.000000, 98.562
7100.000000, 99.018
7200.000000, 99.510
7300.000000, 100.024
7400.000000, 100.540
7500.000000, 101.034
7620.000000, 101.566
7750.000000, 102.030
7880.000000, 102.349
8000.000000, 102.501
8120.000000, 102.517
8250.000000, 102.396
8380.000000, 102.156
8500.000000, 101.854
8620.000000, 101.500
8750.000000, 101.083
8850.000000, 100.752
9000.000000, 100.246
9120.000000, 99.836
9250.000000, 99.393
9380.000000, 98.965
9500.000000, 98.596
9620.000000, 98.251
9750.000000, 97.900
9880.000000, 97.565
10000.000000, 97.270
10150.000000, 96.926
10300.000000, 96.616
10440.000000, 96.362
10600.000000, 96.113
10750.000000, 95.920
10900.000000, 95.769
11060.000000, 95.652
11200.000000, 95.587
11380.000000, 95.553
11500.000000, 95.562
11720.000000, 95.646
11800.000000, 95.697
12060.000000, 95.936
12200.000000, 96.108
12410.000000, 96.423
12500.000000, 96.580
12650.000000, 96.869
12800.000000, 97.190
13150.000000, 98.004
13200.000000, 98.120
13400.000000, 98.554
13600.000000, 98.905
13800.000000, 99.129
14000.000000, 99.199
14300.000000, 98.996
14500.000000, 98.665
14750.000000, 98.055
15000.000000, 97.253
15250.000000, 96.306
15500.000000, 95.300
15750.000000, 94.302
16000.000000, 93.290
16250.000000, 92.212
16500.000000, 91.058
16750.000000, 89.865
17000.000000, 88.706
17250.000000, 87.673
17500.000000, 86.852
17750.000000, 86.267
18000.000000, 85.847
18250.000000, 85.449
18500.000000, 84.930
18750.000000, 84.197
19000.000000, 83.207
19250.000000, 81.946
19500.000000, 80.445
19750.000000, 78.885
20000.000000, 77.796
