* Measurement data measured by REW V5.31.3
* Source: EXCL: Headset (USB-C to 3.5mm Headphone Jack Adapter), MICROPHONE (Master Volume), 0, volume: 0.700
* Format: 256k Log Swept Sine, 1 sweep at -12.0 dBFS with no timing reference
* Dated: Dec 21, 2024 1:53:16 AM
* REW Settings:
*  C-weighting compensation: Off
*  Target level: 75.0 dB
* Note: ; 
* Measurement: Duality BH S- R
* Smoothing: 1/24 octave
* Frequency Step: 1/48 octave
* Start Frequency: 1.000 Hz
*
* Freq(Hz), SPL(dB), Phase(degrees)
1.000000, 76.262, -158.3165
1.015000, 76.479, -159.5435
1.030000, 76.694, -160.7444
1.044000, 76.891, -161.8444
1.060000, 77.112, -163.0798
1.075000, 77.315, -164.2198
1.090000, 77.514, -165.3455
1.106000, 77.721, -166.5351
1.120000, 77.900, -167.5710
1.138000, 78.127, -168.8970
1.150000, 78.276, -169.7761
1.172000, 78.547, -171.3744
1.180000, 78.644, -171.9505
1.206000, 78.956, -173.8007
1.220000, 79.121, -174.7814
1.241000, 79.366, -176.2296
1.250000, 79.470, -176.8415
1.265000, 79.642, -177.8488
1.280000, 79.812, -178.8401
1.315000, 80.200, 178.9119
1.320000, 80.255, 178.5984
1.340000, 80.472, 177.3639
1.360000, 80.686, 176.1607
1.380000, 80.897, 174.9891
1.400000, 81.105, 173.8490
1.430000, 81.411, 172.1973
1.450000, 81.612, 171.1341
1.475000, 81.859, 169.8423
1.500000, 82.100, 168.5793
1.525000, 82.336, 167.3395
1.550000, 82.566, 166.1221
1.575000, 82.791, 164.9270
1.600000, 83.011, 163.7538
1.625000, 83.227, 162.6022
1.650000, 83.437, 161.4715
1.675000, 83.644, 160.3610
1.700000, 83.847, 159.2698
1.725000, 84.047, 158.1971
1.750000, 84.243, 157.1418
1.775000, 84.436, 156.1031
1.800000, 84.627, 155.0797
1.825000, 84.815, 154.0695
1.850000, 84.999, 153.0679
1.875000, 85.180, 152.0700
1.900000, 85.357, 151.0761
1.925000, 85.530, 150.0880
1.950000, 85.699, 149.1078
1.975000, 85.864, 148.1374
2.000000, 86.027, 147.1783
2.030000, 86.218, 146.0445
2.060000, 86.404, 144.9310
2.090000, 86.588, 143.8398
2.120000, 86.767, 142.7721
2.140000, 86.885, 142.0739
2.180000, 87.118, 140.7103
2.200000, 87.233, 140.0433
2.240000, 87.457, 138.7261
2.270000, 87.620, 137.7479
2.300000, 87.780, 136.7787
2.330000, 87.935, 135.8201
2.360000, 88.088, 134.8737
2.400000, 88.286, 133.6334
2.430000, 88.431, 132.7209
2.470000, 88.621, 131.5303
2.500000, 88.761, 130.6581
2.540000, 88.945, 129.5241
2.580000, 89.125, 128.4199
2.620000, 89.300, 127.3355
2.650000, 89.429, 126.5323
2.690000, 89.596, 125.4751
2.720000, 89.718, 124.6934
2.760000, 89.878, 123.6669
2.800000, 90.035, 122.6599
2.850000, 90.226, 121.4306
2.900000, 90.414, 120.2357
2.950000, 90.599, 119.0736
3.000000, 90.778, 117.9356
3.040000, 90.918, 117.0399
3.070000, 91.022, 116.3767
3.110000, 91.157, 115.5045
3.150000, 91.290, 114.6466
3.200000, 91.453, 113.5952
3.250000, 91.613, 112.5682
3.300000, 91.772, 111.5659
3.350000, 91.927, 110.5859
3.400000, 92.080, 109.6247
3.450000, 92.230, 108.6807
3.500000, 92.376, 107.7526
3.550000, 92.521, 106.8394
3.600000, 92.664, 105.9401
3.650000, 92.804, 105.0540
3.700000, 92.943, 104.1803
3.750000, 93.080, 103.3184
3.820000, 93.269, 102.1302
3.870000, 93.401, 101.2937
3.950000, 93.608, 99.9747
4.000000, 93.736, 99.1613
4.060000, 93.887, 98.1953
4.120000, 94.035, 97.2393
4.180000, 94.180, 96.2931
4.250000, 94.347, 95.2009
4.310000, 94.487, 94.2744
4.370000, 94.625, 93.3561
4.440000, 94.782, 92.2928
4.500000, 94.914, 91.3866
4.550000, 95.021, 90.6357
4.620000, 95.169, 89.5925
4.680000, 95.293, 88.7073
4.750000, 95.434, 87.6855
4.820000, 95.572, 86.6727
4.870000, 95.668, 85.9530
4.940000, 95.799, 84.9519
5.000000, 95.909, 84.1020
5.080000, 96.051, 82.9839
5.150000, 96.172, 82.0200
5.220000, 96.290, 81.0657
5.300000, 96.420, 79.9857
5.380000, 96.546, 78.9206
5.450000, 96.653, 78.0040
5.520000, 96.758, 77.1022
5.600000, 96.874, 76.0859
5.700000, 97.015, 74.8357
5.800000, 97.151, 73.6113
5.900000, 97.282, 72.4153
6.000000, 97.410, 71.2439
6.080000, 97.509, 70.3228
6.150000, 97.594, 69.5287
6.220000, 97.678, 68.7458
6.300000, 97.772, 67.8639
6.400000, 97.887, 66.7792
6.500000, 97.999, 65.7122
6.600000, 98.109, 64.6614
6.700000, 98.217, 63.6257
6.800000, 98.322, 62.6037
6.900000, 98.425, 61.5939
7.000000, 98.526, 60.5948
7.100000, 98.625, 59.6052
7.200000, 98.722, 58.6250
7.300000, 98.816, 57.6539
7.400000, 98.908, 56.6907
7.500000, 98.998, 55.7348
7.620000, 99.103, 54.5983
7.750000, 99.212, 53.3808
7.880000, 99.317, 52.1755
8.000000, 99.411, 51.0753
8.120000, 99.502, 49.9879
8.250000, 99.596, 48.8228
8.380000, 99.688, 47.6718
8.500000, 99.769, 46.6227
8.620000, 99.847, 45.5850
8.750000, 99.930, 44.4737
8.850000, 99.991, 43.6278
9.000000, 100.081, 42.3721
9.120000, 100.150, 41.3782
9.250000, 100.222, 40.3112
9.380000, 100.293, 39.2533
9.500000, 100.355, 38.2843
9.620000, 100.416, 37.3216
9.750000, 100.480, 36.2852
9.880000, 100.541, 35.2559
10.000000, 100.595, 34.3112
10.150000, 100.660, 33.1379
10.300000, 100.721, 31.9746
10.440000, 100.775, 30.8973
10.600000, 100.832, 29.6784
10.750000, 100.883, 28.5491
10.900000, 100.931, 27.4332
11.060000, 100.978, 26.2601
11.200000, 101.017, 25.2483
11.380000, 101.064, 23.9678
11.500000, 101.094, 23.1270
11.720000, 101.146, 21.6089
11.800000, 101.164, 21.0638
12.060000, 101.222, 19.3126
12.200000, 101.252, 18.3792
12.410000, 101.295, 16.9881
12.500000, 101.312, 16.3942
12.650000, 101.340, 15.4067
12.800000, 101.367, 14.4232
13.150000, 101.418, 12.1487
13.200000, 101.425, 11.8274
13.400000, 101.447, 10.5544
13.600000, 101.466, 9.3058
13.800000, 101.481, 8.0857
14.000000, 101.495, 6.8948
14.300000, 101.515, 5.1572
14.500000, 101.530, 4.0219
14.750000, 101.548, 2.6141
15.000000, 101.565, 1.2083
15.250000, 101.579, -0.2003
15.500000, 101.586, -1.6016
15.750000, 101.586, -2.9777
16.000000, 101.578, -4.3041
16.250000, 101.565, -5.5616
16.500000, 101.552, -6.7446
16.750000, 101.545, -7.8631
17.000000, 101.546, -8.9462
17.250000, 101.555, -10.0289
17.500000, 101.571, -11.1444
17.750000, 101.586, -12.3110
18.000000, 101.597, -13.5260
18.250000, 101.596, -14.7689
18.500000, 101.584, -16.0059
18.750000, 101.560, -17.2048
19.000000, 101.529, -18.3426
19.250000, 101.496, -19.4142
19.500000, 101.466, -20.4346
19.750000, 101.441, -21.4298
20.000000, 101.421, -22.4304
20.299999, 101.397, -23.6669
20.600000, 101.368, -24.9491
20.900000, 101.327, -26.2546
21.200001, 101.272, -27.5426
21.400000, 101.229, -28.3720
21.799999, 101.136, -29.9338
22.000000, 101.088, -30.6666
22.400000, 100.999, -32.0627
22.700001, 100.937, -33.0777
23.000000, 100.878, -34.0836
23.299999, 100.822, -35.0854
23.600000, 100.766, -36.0808
24.000000, 100.694, -37.3937
24.299999, 100.642, -38.3701
24.700001, 100.576, -39.6711
25.000000, 100.528, -40.6509
25.400000, 100.463, -41.9612
25.799999, 100.397, -43.2670
26.200001, 100.327, -44.5585
26.500000, 100.272, -45.5117
26.900000, 100.195, -46.7483
27.200001, 100.134, -47.6353
27.600000, 100.050, -48.7440
28.000000, 99.972, -49.7684
28.500000, 99.889, -50.9914
29.000000, 99.820, -52.2591
29.500000, 99.747, -53.6228
30.000000, 99.655, -55.0165
30.400000, 99.567, -56.0809
30.700001, 99.498, -56.8303
31.100000, 99.408, -57.7743
31.500000, 99.323, -58.6863
32.000000, 99.222, -59.8254
32.500000, 99.121, -60.9745
33.000000, 99.020, -62.1152
33.500000, 98.919, -63.2322
34.000000, 98.821, -64.3276
34.500000, 98.728, -65.4160
35.000000, 98.638, -66.5129
35.500000, 98.545, -67.6122
36.000000, 98.445, -68.6763
36.500000, 98.343, -69.6631
37.000000, 98.247, -70.5775
37.500000, 98.159, -71.4741
38.200001, 98.035, -72.7599
38.700001, 97.937, -73.6500
39.500000, 97.782, -74.9521
40.000000, 97.695, -75.7743
40.599998, 97.584, -76.8434
41.200001, 97.453, -77.8997
41.799999, 97.314, -78.8143
42.500000, 97.177, -79.7822
43.099998, 97.075, -80.6881
43.700001, 96.968, -81.6624
44.400002, 96.834, -82.7556
45.000000, 96.725, -83.6341
45.500000, 96.638, -84.3560
46.200001, 96.518, -85.3588
46.799999, 96.415, -86.1931
47.500000, 96.296, -87.1418
48.200001, 96.175, -88.0629
48.700001, 96.088, -88.6945
49.400002, 95.970, -89.5603
50.000000, 95.868, -90.3165
50.799999, 95.725, -91.3329
51.500000, 95.590, -92.1575
52.200001, 95.459, -92.8698
53.000000, 95.329, -93.6058
53.799999, 95.221, -94.4053
54.500000, 95.126, -95.1828
55.200001, 95.024, -95.9606
56.000000, 94.905, -96.8171
57.000000, 94.753, -97.8530
58.000000, 94.596, -98.8057
59.000000, 94.444, -99.6979
60.000000, 94.298, -100.5710
60.799999, 94.186, -101.2865
61.500000, 94.086, -101.9261
62.200001, 93.985, -102.5496
63.000000, 93.870, -103.2231
64.000000, 93.735, -104.0255
65.000000, 93.608, -104.8203
66.000000, 93.483, -105.6139
67.000000, 93.357, -106.3828
68.000000, 93.233, -107.1096
69.000000, 93.114, -107.8229
70.000000, 92.994, -108.5451
71.000000, 92.871, -109.2377
72.000000, 92.750, -109.8937
73.000000, 92.633, -110.5247
74.000000, 92.521, -111.1418
75.000000, 92.414, -111.7471
76.199997, 92.291, -112.4880
77.500000, 92.154, -113.2882
78.800003, 92.022, -114.0148
80.000000, 91.903, -114.7090
81.199997, 91.781, -115.3535
82.500000, 91.654, -116.0032
83.800003, 91.536, -116.6082
85.000000, 91.437, -117.1939
86.199997, 91.337, -117.8218
87.500000, 91.221, -118.4841
88.500000, 91.130, -118.9636
90.000000, 90.992, -119.5850
91.199997, 90.893, -120.0454
92.500000, 90.791, -120.5728
93.800003, 90.695, -121.1107
95.000000, 90.605, -121.6542
96.199997, 90.513, -122.1605
97.500000, 90.419, -122.7058
98.800003, 90.325, -123.2607
100.000000, 90.243, -123.7201
101.500000, 90.154, -124.3287
103.000000, 90.062, -124.9177
104.400002, 89.978, -125.4200
106.000000, 89.867, -125.9604
107.500000, 89.765, -126.3599
109.000000, 89.677, -126.9054
110.599998, 89.576, -127.5364
112.000000, 89.504, -127.9759
113.800003, 89.428, -128.4722
115.000000, 89.364, -128.7234
117.199997, 89.191, -129.0070
118.000000, 89.111, -129.0388
120.599998, 88.972, -129.0552
122.000000, 88.942, -129.9372
124.099998, 88.859, -131.1927
125.000000, 88.826, -131.5750
126.500000, 88.771, -132.0377
128.000000, 88.707, -132.3262
131.500000, 88.550, -132.9752
132.000000, 88.528, -133.0911
134.000000, 88.447, -133.5069
136.000000, 88.362, -133.7422
138.000000, 88.275, -133.8231
140.000000, 88.199, -133.9952
143.000000, 88.160, -134.5610
145.000000, 88.189, -135.0293
147.500000, 88.194, -135.8717
150.000000, 88.089, -136.4480
152.500000, 87.965, -136.9513
155.000000, 87.873, -137.3692
157.500000, 87.833, -137.7175
160.000000, 87.800, -138.1286
162.500000, 87.764, -138.5372
165.000000, 87.728, -139.1475
167.500000, 87.662, -139.7918
170.000000, 87.589, -140.3154
172.500000, 87.525, -140.7234
175.000000, 87.472, -141.1389
177.500000, 87.418, -141.5367
180.000000, 87.367, -141.9097
182.500000, 87.319, -142.2541
185.000000, 87.272, -142.5910
187.500000, 87.225, -142.9321
190.000000, 87.177, -143.2551
192.500000, 87.132, -143.5529
195.000000, 87.086, -143.8730
197.500000, 87.038, -144.2229
200.000000, 86.994, -144.5512
203.000000, 86.956, -144.8704
206.000000, 86.919, -145.1804
209.000000, 86.872, -145.5027
212.000000, 86.828, -145.8785
214.000000, 86.801, -146.1395
218.000000, 86.750, -146.6284
220.000000, 86.723, -146.8275
224.000000, 86.677, -147.1282
227.000000, 86.644, -147.3630
230.000000, 86.608, -147.5999
233.000000, 86.575, -147.8380
236.000000, 86.540, -148.1008
240.000000, 86.493, -148.4417
243.000000, 86.460, -148.6514
247.000000, 86.420, -148.9288
250.000000, 86.392, -149.1542
254.000000, 86.356, -149.4554
258.000000, 86.319, -149.7197
262.000000, 86.283, -149.9553
265.000000, 86.257, -150.1213
269.000000, 86.225, -150.3746
272.000000, 86.200, -150.5409
276.000000, 86.168, -150.7546
280.000000, 86.137, -150.9781
285.000000, 86.101, -151.2153
290.000000, 86.067, -151.4370
295.000000, 86.035, -151.6534
300.000000, 86.003, -151.8651
304.000000, 85.982, -152.0332
307.000000, 85.967, -152.1573
311.000000, 85.946, -152.3230
315.000000, 85.924, -152.4951
320.000000, 85.897, -152.7172
325.000000, 85.869, -152.9224
330.000000, 85.842, -153.0989
335.000000, 85.816, -153.2624
340.000000, 85.791, -153.4240
345.000000, 85.765, -153.5695
350.000000, 85.738, -153.7068
355.000000, 85.713, -153.8355
360.000000, 85.688, -153.9515
365.000000, 85.664, -154.0555
370.000000, 85.639, -154.1597
375.000000, 85.615, -154.2612
382.000000, 85.585, -154.3950
387.000000, 85.565, -154.4843
395.000000, 85.531, -154.6038
400.000000, 85.511, -154.6829
406.000000, 85.486, -154.7807
412.000000, 85.460, -154.8474
418.000000, 85.436, -154.9031
425.000000, 85.408, -154.9650
431.000000, 85.384, -154.9984
437.000000, 85.360, -155.0204
444.000000, 85.333, -155.0532
450.000000, 85.311, -155.0744
455.000000, 85.292, -155.0808
462.000000, 85.267, -155.0854
468.000000, 85.245, -155.0785
475.000000, 85.219, -155.0502
482.000000, 85.194, -155.0225
487.000000, 85.177, -155.0098
494.000000, 85.153, -154.9831
500.000000, 85.134, -154.9544
508.000000, 85.109, -154.9128
515.000000, 85.085, -154.8695
522.000000, 85.060, -154.8016
530.000000, 85.031, -154.7189
538.000000, 85.003, -154.6302
545.000000, 84.980, -154.5354
552.000000, 84.956, -154.4217
560.000000, 84.930, -154.3009
570.000000, 84.899, -154.1364
580.000000, 84.867, -153.9497
590.000000, 84.834, -153.7526
600.000000, 84.804, -153.5366
608.000000, 84.781, -153.3664
615.000000, 84.761, -153.1984
622.000000, 84.741, -153.0256
630.000000, 84.715, -152.8265
640.000000, 84.684, -152.5583
650.000000, 84.654, -152.2718
660.000000, 84.625, -151.9528
670.000000, 84.596, -151.6376
680.000000, 84.567, -151.3160
690.000000, 84.539, -150.9613
700.000000, 84.513, -150.5839
710.000000, 84.487, -150.1939
720.000000, 84.461, -149.7798
730.000000, 84.436, -149.3464
740.000000, 84.416, -148.9039
750.000000, 84.397, -148.4543
762.000000, 84.374, -147.8992
775.000000, 84.350, -147.2677
788.000000, 84.328, -146.6102
800.000000, 84.312, -145.9817
812.000000, 84.299, -145.3292
825.000000, 84.291, -144.5992
838.000000, 84.284, -143.8386
850.000000, 84.279, -143.1028
862.000000, 84.278, -142.3517
875.000000, 84.283, -141.5259
885.000000, 84.290, -140.8765
900.000000, 84.305, -139.8798
912.000000, 84.321, -139.0681
925.000000, 84.345, -138.1803
938.000000, 84.379, -137.2766
950.000000, 84.417, -136.4319
962.000000, 84.457, -135.5790
975.000000, 84.504, -134.6439
988.000000, 84.558, -133.7008
1000.000000, 84.613, -132.8344
1015.000000, 84.691, -131.7549
1030.000000, 84.778, -130.6741
1044.000000, 84.867, -129.6672
1060.000000, 84.978, -128.5150
1075.000000, 85.093, -127.4417
1090.000000, 85.220, -126.3856
1106.000000, 85.370, -125.2899
1120.000000, 85.513, -124.3682
1138.000000, 85.713, -123.2476
1150.000000, 85.856, -122.5560
1172.000000, 86.130, -121.4271
1180.000000, 86.233, -121.0665
1206.000000, 86.578, -120.0829
1220.000000, 86.769, -119.6646
1241.000000, 87.056, -119.1846
1250.000000, 87.177, -119.0364
1265.000000, 87.379, -118.8614
1280.000000, 87.577, -118.7702
1315.000000, 88.017, -118.8376
1320.000000, 88.077, -118.8762
1340.000000, 88.310, -119.0908
1360.000000, 88.530, -119.3949
1380.000000, 88.736, -119.7682
1400.000000, 88.927, -120.1953
1430.000000, 89.187, -120.9183
1450.000000, 89.344, -121.4279
1475.000000, 89.521, -122.0804
1500.000000, 89.681, -122.7299
1525.000000, 89.825, -123.3699
1550.000000, 89.954, -123.9888
1575.000000, 90.071, -124.5853
1600.000000, 90.176, -125.1460
1625.000000, 90.273, -125.6644
1650.000000, 90.363, -126.1522
1675.000000, 90.446, -126.6056
1700.000000, 90.525, -127.0234
1725.000000, 90.599, -127.4015
1750.000000, 90.670, -127.7448
1775.000000, 90.738, -128.0604
1800.000000, 90.804, -128.3502
1825.000000, 90.868, -128.6147
1850.000000, 90.931, -128.8547
1875.000000, 90.994, -129.0702
1900.000000, 91.056, -129.2691
1925.000000, 91.118, -129.4507
1950.000000, 91.181, -129.6114
1975.000000, 91.244, -129.7581
2000.000000, 91.308, -129.8939
2030.000000, 91.384, -130.0475
2060.000000, 91.462, -130.1907
2090.000000, 91.542, -130.3195
2120.000000, 91.623, -130.4391
2140.000000, 91.678, -130.5151
2180.000000, 91.790, -130.6637
2200.000000, 91.848, -130.7399
2240.000000, 91.966, -130.8983
2270.000000, 92.056, -131.0221
2300.000000, 92.148, -131.1560
2330.000000, 92.242, -131.2950
2360.000000, 92.338, -131.4415
2400.000000, 92.469, -131.6573
2430.000000, 92.570, -131.8374
2470.000000, 92.706, -132.1031
2500.000000, 92.811, -132.3241
2540.000000, 92.953, -132.6514
2580.000000, 93.097, -133.0222
2620.000000, 93.243, -133.4401
2650.000000, 93.354, -133.7857
2690.000000, 93.504, -134.2943
2720.000000, 93.617, -134.7128
2760.000000, 93.768, -135.3224
2800.000000, 93.919, -135.9951
2850.000000, 94.107, -136.9377
2900.000000, 94.292, -137.9957
2950.000000, 94.472, -139.1794
3000.000000, 94.644, -140.4983
3040.000000, 94.774, -141.6458
3070.000000, 94.867, -142.5590
3110.000000, 94.982, -143.8466
3150.000000, 95.086, -145.2123
3200.000000, 95.199, -147.0227
3250.000000, 95.289, -148.9374
3300.000000, 95.355, -150.9380
3350.000000, 95.393, -153.0063
3400.000000, 95.402, -155.1143
3450.000000, 95.381, -157.2358
3500.000000, 95.329, -159.3446
3550.000000, 95.246, -161.4100
3600.000000, 95.135, -163.4058
3650.000000, 94.999, -165.3105
3700.000000, 94.840, -167.1124
3750.000000, 94.663, -168.8058
3820.000000, 94.388, -170.9915
3870.000000, 94.174, -172.4200
3950.000000, 93.805, -174.4649
4000.000000, 93.560, -175.5869
4060.000000, 93.255, -176.7674
4120.000000, 92.938, -177.7633
4180.000000, 92.612, -178.5731
4250.000000, 92.226, -179.2787
4310.000000, 91.892, -179.6759
4370.000000, 91.558, -179.8936
4440.000000, 91.171, -179.9296
4500.000000, 90.843, -179.7819
4550.000000, 90.573, -179.5322
4620.000000, 90.201, -178.9840
4680.000000, 89.888, -178.3161
4750.000000, 89.535, -177.2748
4820.000000, 89.203, -175.8812
4870.000000, 88.996, -174.6362
4940.000000, 88.784, -172.6399
5000.000000, 88.693, -171.0306
5080.000000, 88.639, -169.6255
5150.000000, 88.562, -168.9923
5220.000000, 88.427, -168.4735
5300.000000, 88.224, -167.6829
5380.000000, 88.007, -166.5748
5450.000000, 87.825, -165.3736
5520.000000, 87.660, -164.0031
5600.000000, 87.498, -162.2863
5700.000000, 87.339, -160.0029
5800.000000, 87.228, -157.6288
5900.000000, 87.163, -155.2114
6000.000000, 87.141, -152.7848
6080.000000, 87.153, -150.8513
6150.000000, 87.187, -149.1742
6220.000000, 87.243, -147.5121
6300.000000, 87.333, -145.6393
6400.000000, 87.484, -143.3650
6500.000000, 87.681, -141.1849
6600.000000, 87.927, -139.1248
6700.000000, 88.223, -137.2081
6800.000000, 88.572, -135.4789
6900.000000, 88.977, -133.9814
7000.000000, 89.440, -132.7682
7100.000000, 89.966, -131.9060
7200.000000, 90.559, -131.4938
7300.000000, 91.222, -131.6793
7400.000000, 91.948, -132.6398
7500.000000, 92.725, -134.5900
7620.000000, 93.684, -138.5859
7750.000000, 94.650, -145.3456
7880.000000, 95.357, -154.6896
8000.000000, 95.605, -164.9490
8120.000000, 95.376, -175.5217
8250.000000, 94.638, 174.2101
8380.000000, 93.560, 166.2112
8500.000000, 92.431, 161.0348
8620.000000, 91.292, 157.6860
8750.000000, 90.119, 155.6382
8850.000000, 89.283, 154.8984
9000.000000, 88.147, 154.7262
9120.000000, 87.335, 155.1492
9250.000000, 86.543, 155.9731
9380.000000, 85.830, 157.0532
9500.000000, 85.232, 158.1926
9620.000000, 84.682, 159.4119
9750.000000, 84.129, 160.8068
9880.000000, 83.612, 162.2867
10000.000000, 83.161, 163.7571
10150.000000, 82.634, 165.8136
10300.000000, 82.165, 168.1722
10440.000000, 81.810, 170.6093
10600.000000, 81.528, 173.4134
10750.000000, 81.375, 175.7103
10900.000000, 81.293, 177.4762
11060.000000, 81.239, 178.7504
11200.000000, 81.195, 179.4324
11380.000000, 81.124, 179.8732
11500.000000, 81.067, 179.9835
11720.000000, 80.941, 179.9459
11800.000000, 80.889, 179.8857
12060.000000, 80.709, 179.6265
12200.000000, 80.613, 179.4714
12410.000000, 80.481, 179.2131
12500.000000, 80.431, 179.1085
12650.000000, 80.367, 178.9924
12800.000000, 80.343, 178.9415
13150.000000, 80.558, 177.9293
13200.000000, 80.605, 177.5251
13400.000000, 80.759, 175.4164
13600.000000, 80.888, 173.0706
13800.000000, 81.062, 170.3655
14000.000000, 81.273, 166.8751
14300.000000, 81.501, 159.9268
14500.000000, 81.497, 154.8748
14750.000000, 81.471, 149.5042
15000.000000, 81.789, 144.0909
15250.000000, 82.371, 135.7056
15500.000000, 82.806, 123.6710
15750.000000, 82.810, 109.2869
16000.000000, 82.319, 94.3444
16250.000000, 81.436, 80.1797
16500.000000, 80.333, 67.3133
16750.000000, 79.168, 55.6042
17000.000000, 78.027, 44.5731
17250.000000, 76.950, 33.7455
17500.000000, 75.945, 22.7777
17750.000000, 75.011, 11.2504
18000.000000, 74.136, -1.1913
18250.000000, 73.288, -14.8589
18500.000000, 72.428, -29.9439
18750.000000, 71.513, -46.7224
19000.000000, 70.480, -65.3701
19250.000000, 69.227, -85.8216
19500.000000, 67.664, -107.7264
19750.000000, 65.843, -130.1626
20000.000000, 64.436, -148.3347
