* Measurement data measured by REW V5.31.3
* Source: EXCL: Headset (USB-C to 3.5mm Headphone Jack Adapter), MICROPHONE (Master Volume), 0, volume: 0.700
* Format: 256k Log Swept Sine, 1 sweep at -12.0 dBFS with no timing reference
* Dated: Dec 21, 2024 2:10:04 AM
* REW Settings:
*  C-weighting compensation: Off
*  Target level: 75.0 dB
* Note: ; 
* Measurement: Duality S- IMP L
* Smoothing: 1/24 octave
* Frequency Step: 1/48 octave
* Start Frequency: 1.000 Hz
*
* Freq(Hz), SPL(dB), Phase(degrees)
1.000000, 76.777, 177.7777
1.015000, 77.011, 177.1912
1.030000, 77.243, 176.6027
1.044000, 77.458, 176.0508
1.060000, 77.702, 175.4157
1.075000, 77.930, 174.8152
1.090000, 78.157, 174.2094
1.106000, 78.397, 173.5593
1.120000, 78.604, 172.9923
1.138000, 78.867, 172.2698
1.150000, 79.038, 171.7927
1.172000, 79.348, 170.9278
1.180000, 79.458, 170.6165
1.206000, 79.812, 169.6161
1.220000, 79.998, 169.0846
1.241000, 80.273, 168.2965
1.250000, 80.390, 167.9620
1.265000, 80.581, 167.4087
1.280000, 80.770, 166.8605
1.315000, 81.203, 165.5997
1.320000, 81.263, 165.4215
1.340000, 81.504, 164.7133
1.360000, 81.742, 164.0119
1.380000, 81.977, 163.3164
1.400000, 82.208, 162.6263
1.430000, 82.552, 161.5994
1.450000, 82.778, 160.9196
1.475000, 83.058, 160.0765
1.500000, 83.332, 159.2461
1.525000, 83.600, 158.4301
1.550000, 83.863, 157.6271
1.575000, 84.119, 156.8353
1.600000, 84.371, 156.0530
1.625000, 84.617, 155.2785
1.650000, 84.859, 154.5101
1.675000, 85.097, 153.7461
1.700000, 85.330, 152.9850
1.725000, 85.560, 152.2252
1.750000, 85.786, 151.4653
1.775000, 86.009, 150.7038
1.800000, 86.229, 149.9394
1.825000, 86.446, 149.1711
1.850000, 86.660, 148.3995
1.875000, 86.870, 147.6268
1.900000, 87.076, 146.8549
1.925000, 87.278, 146.0851
1.950000, 87.476, 145.3186
1.975000, 87.670, 144.5560
2.000000, 87.861, 143.7980
2.030000, 88.086, 142.8949
2.060000, 88.306, 141.9994
2.090000, 88.522, 141.1115
2.120000, 88.734, 140.2311
2.140000, 88.873, 139.6482
2.180000, 89.148, 138.4908
2.200000, 89.283, 137.9153
2.240000, 89.547, 136.7657
2.270000, 89.741, 135.9041
2.300000, 89.929, 135.0448
2.330000, 90.114, 134.1895
2.360000, 90.295, 133.3394
2.400000, 90.530, 132.2164
2.430000, 90.703, 131.3831
2.470000, 90.928, 130.2852
2.500000, 91.094, 129.4723
2.540000, 91.310, 128.4025
2.580000, 91.522, 127.3450
2.620000, 91.728, 126.2918
2.650000, 91.879, 125.5035
2.690000, 92.074, 124.4570
2.720000, 92.217, 123.6771
2.760000, 92.404, 122.6463
2.800000, 92.586, 121.6283
2.850000, 92.807, 120.3768
2.900000, 93.023, 119.1511
2.950000, 93.233, 117.9481
3.000000, 93.436, 116.7552
3.040000, 93.594, 115.8063
3.070000, 93.709, 115.0991
3.110000, 93.859, 114.1639
3.150000, 94.006, 113.2399
3.200000, 94.185, 112.1037
3.250000, 94.360, 110.9915
3.300000, 94.530, 109.9038
3.350000, 94.697, 108.8336
3.400000, 94.857, 107.7747
3.450000, 95.013, 106.7278
3.500000, 95.165, 105.6953
3.550000, 95.313, 104.6792
3.600000, 95.458, 103.6816
3.650000, 95.600, 102.7035
3.700000, 95.739, 101.7421
3.750000, 95.875, 100.7930
3.820000, 96.059, 99.4832
3.870000, 96.186, 98.5621
3.950000, 96.386, 97.1164
4.000000, 96.507, 96.2314
4.060000, 96.651, 95.1873
4.120000, 96.791, 94.1588
4.180000, 96.927, 93.1443
4.250000, 97.082, 91.9782
4.310000, 97.212, 90.9941
4.370000, 97.340, 90.0242
4.440000, 97.485, 88.9087
4.500000, 97.607, 87.9639
4.550000, 97.707, 87.1841
4.620000, 97.843, 86.1047
4.680000, 97.957, 85.1915
4.750000, 98.088, 84.1402
4.820000, 98.215, 83.1015
4.870000, 98.304, 82.3658
4.940000, 98.426, 81.3450
5.000000, 98.528, 80.4798
5.080000, 98.660, 79.3420
5.150000, 98.773, 78.3611
5.220000, 98.882, 77.3907
5.300000, 99.004, 76.2932
5.380000, 99.122, 75.2111
5.450000, 99.223, 74.2791
5.520000, 99.321, 73.3612
5.600000, 99.430, 72.3260
5.700000, 99.562, 71.0516
5.800000, 99.690, 69.8021
5.900000, 99.814, 68.5798
6.000000, 99.934, 67.3812
6.080000, 100.027, 66.4377
6.150000, 100.108, 65.6232
6.220000, 100.187, 64.8192
6.300000, 100.276, 63.9128
6.400000, 100.385, 62.7963
6.500000, 100.491, 61.6958
6.600000, 100.596, 60.6089
6.700000, 100.699, 59.5345
6.800000, 100.800, 58.4714
6.900000, 100.898, 57.4172
7.000000, 100.995, 56.3696
7.100000, 101.090, 55.3276
7.200000, 101.182, 54.2913
7.300000, 101.272, 53.2607
7.400000, 101.359, 52.2341
7.500000, 101.443, 51.2108
7.620000, 101.541, 49.9903
7.750000, 101.642, 48.6794
7.880000, 101.737, 47.3776
8.000000, 101.821, 46.1883
8.120000, 101.900, 45.0140
8.250000, 101.982, 43.7566
8.380000, 102.059, 42.5175
8.500000, 102.126, 41.3923
8.620000, 102.190, 40.2832
8.750000, 102.257, 39.0999
8.850000, 102.306, 38.2030
9.000000, 102.377, 36.8771
9.120000, 102.431, 35.8315
9.250000, 102.487, 34.7128
9.380000, 102.542, 33.6071
9.500000, 102.590, 32.5967
9.620000, 102.636, 31.5949
9.750000, 102.684, 30.5186
9.880000, 102.730, 29.4521
10.000000, 102.770, 28.4757
10.150000, 102.816, 27.2662
10.300000, 102.860, 26.0715
10.440000, 102.897, 24.9697
10.600000, 102.937, 23.7277
10.750000, 102.971, 22.5814
10.900000, 103.002, 21.4521
11.060000, 103.034, 20.2666
11.200000, 103.060, 19.2444
11.380000, 103.092, 17.9479
11.500000, 103.112, 17.0935
11.720000, 103.147, 15.5441
11.800000, 103.159, 14.9850
12.060000, 103.196, 13.1818
12.200000, 103.213, 12.2188
12.410000, 103.237, 10.7852
12.500000, 103.246, 10.1757
12.650000, 103.259, 9.1670
12.800000, 103.270, 8.1691
13.150000, 103.289, 5.8899
13.200000, 103.291, 5.5704
13.400000, 103.298, 4.3078
13.600000, 103.304, 3.0679
13.800000, 103.309, 1.8480
14.000000, 103.313, 0.6442
14.300000, 103.317, -1.1373
14.500000, 103.318, -2.3104
14.750000, 103.316, -3.7560
15.000000, 103.310, -5.1718
15.250000, 103.300, -6.5483
15.500000, 103.290, -7.8818
15.750000, 103.280, -9.1761
16.000000, 103.273, -10.4441
16.250000, 103.269, -11.7057
16.500000, 103.266, -12.9788
16.750000, 103.261, -14.2750
17.000000, 103.250, -15.5909
17.250000, 103.229, -16.9092
17.500000, 103.196, -18.2018
17.750000, 103.153, -19.4371
18.000000, 103.104, -20.5930
18.250000, 103.054, -21.6613
18.500000, 103.009, -22.6554
18.750000, 102.973, -23.6061
19.000000, 102.946, -24.5513
19.250000, 102.927, -25.5281
19.500000, 102.909, -26.5557
19.750000, 102.887, -27.6350
20.000000, 102.856, -28.7479
20.299999, 102.805, -30.0852
20.600000, 102.739, -31.3754
20.900000, 102.665, -32.5844
21.200001, 102.591, -33.7083
21.400000, 102.545, -34.4216
21.799999, 102.461, -35.8080
22.000000, 102.423, -36.5002
22.400000, 102.348, -37.9072
22.700001, 102.290, -38.9781
23.000000, 102.228, -40.0462
23.299999, 102.161, -41.0940
23.600000, 102.091, -42.1073
24.000000, 101.995, -43.3889
24.299999, 101.925, -44.2933
24.700001, 101.837, -45.4301
25.000000, 101.780, -46.2499
25.400000, 101.716, -47.3476
25.799999, 101.661, -48.5078
26.200001, 101.603, -49.7548
26.500000, 101.549, -50.7231
26.900000, 101.460, -51.9875
27.200001, 101.385, -52.8685
27.600000, 101.283, -53.9271
28.000000, 101.192, -54.8952
28.500000, 101.099, -56.1130
29.000000, 101.009, -57.4333
29.500000, 100.900, -58.7938
30.000000, 100.776, -60.0654
30.400000, 100.679, -60.9926
30.700001, 100.612, -61.6599
31.100000, 100.529, -62.5542
31.500000, 100.449, -63.4756
32.000000, 100.343, -64.6394
32.500000, 100.233, -65.7629
33.000000, 100.126, -66.8373
33.500000, 100.025, -67.8996
34.000000, 99.922, -68.9630
34.500000, 99.816, -69.9977
35.000000, 99.710, -70.9836
35.500000, 99.610, -71.9510
36.000000, 99.511, -72.9399
36.500000, 99.404, -73.9362
37.000000, 99.287, -74.8782
37.500000, 99.170, -75.7289
38.200001, 99.024, -76.8470
38.700001, 98.930, -77.6869
39.500000, 98.771, -79.1058
40.000000, 98.666, -79.9692
40.599998, 98.541, -80.9606
41.200001, 98.422, -81.9427
41.799999, 98.300, -82.9150
42.500000, 98.158, -83.9753
43.099998, 98.046, -84.8268
43.700001, 97.941, -85.6917
44.400002, 97.814, -86.7272
45.000000, 97.695, -87.5480
45.500000, 97.598, -88.1473
46.200001, 97.479, -88.9283
46.799999, 97.388, -89.6454
47.500000, 97.279, -90.5634
48.200001, 97.156, -91.4983
48.700001, 97.064, -92.1450
49.400002, 96.930, -93.0055
50.000000, 96.817, -93.6992
50.799999, 96.673, -94.5957
51.500000, 96.552, -95.3937
52.200001, 96.429, -96.1943
53.000000, 96.288, -97.0643
53.799999, 96.153, -97.8641
54.500000, 96.047, -98.5405
55.200001, 95.950, -99.2655
56.000000, 95.832, -100.1583
57.000000, 95.671, -101.2047
58.000000, 95.518, -102.1820
59.000000, 95.357, -103.1727
60.000000, 95.192, -104.0154
60.799999, 95.077, -104.6372
61.500000, 94.983, -105.2213
62.200001, 94.887, -105.8193
63.000000, 94.778, -106.4851
64.000000, 94.643, -107.2982
65.000000, 94.510, -108.0839
66.000000, 94.378, -108.8734
67.000000, 94.238, -109.6355
68.000000, 94.101, -110.3058
69.000000, 93.975, -110.9827
70.000000, 93.851, -111.6965
71.000000, 93.728, -112.3957
72.000000, 93.610, -113.0928
73.000000, 93.492, -113.7643
74.000000, 93.380, -114.3713
75.000000, 93.276, -114.9568
76.199997, 93.152, -115.6760
77.500000, 93.008, -116.4642
78.800003, 92.853, -117.1844
80.000000, 92.723, -117.7661
81.199997, 92.612, -118.4486
82.500000, 92.491, -119.2611
83.800003, 92.368, -120.0947
85.000000, 92.240, -120.7393
86.199997, 92.127, -121.2207
87.500000, 92.015, -121.7971
88.500000, 91.926, -122.2663
90.000000, 91.791, -122.9868
91.199997, 91.687, -123.5590
92.500000, 91.579, -124.1540
93.800003, 91.476, -124.7026
95.000000, 91.383, -125.1603
96.199997, 91.291, -125.5998
97.500000, 91.189, -126.1343
98.800003, 91.080, -126.6932
100.000000, 90.985, -127.1732
101.500000, 90.881, -127.7759
103.000000, 90.780, -128.3283
104.400002, 90.680, -128.7682
106.000000, 90.559, -129.2469
107.500000, 90.447, -129.7908
109.000000, 90.345, -130.4659
110.599998, 90.255, -131.0962
112.000000, 90.197, -131.4918
113.800003, 90.096, -131.8175
115.000000, 89.992, -131.9853
117.199997, 89.699, -132.8018
118.000000, 89.553, -133.2900
120.599998, 89.210, -133.3285
122.000000, 89.301, -133.7026
124.099998, 89.395, -134.7097
125.000000, 89.397, -134.8428
126.500000, 89.361, -134.8145
128.000000, 89.290, -134.7993
131.500000, 89.130, -135.9473
132.000000, 89.113, -136.1749
134.000000, 89.050, -136.9168
136.000000, 88.988, -137.1622
138.000000, 88.936, -137.4868
140.000000, 88.866, -138.1021
143.000000, 88.810, -138.6533
145.000000, 88.812, -138.8231
147.500000, 88.756, -139.4077
150.000000, 88.606, -140.0585
152.500000, 88.490, -140.6956
155.000000, 88.410, -141.2684
157.500000, 88.333, -141.7505
160.000000, 88.256, -142.2382
162.500000, 88.186, -142.6886
165.000000, 88.120, -143.0761
167.500000, 88.046, -143.4924
170.000000, 87.973, -143.9193
172.500000, 87.911, -144.3422
175.000000, 87.847, -144.7254
177.500000, 87.782, -145.0829
180.000000, 87.721, -145.4487
182.500000, 87.664, -145.7944
185.000000, 87.605, -146.1236
187.500000, 87.545, -146.4474
190.000000, 87.491, -146.7478
192.500000, 87.444, -147.0554
195.000000, 87.396, -147.3746
197.500000, 87.345, -147.6855
200.000000, 87.297, -147.9708
203.000000, 87.244, -148.2852
206.000000, 87.191, -148.5957
209.000000, 87.139, -148.8994
212.000000, 87.088, -149.1838
214.000000, 87.054, -149.3727
218.000000, 86.990, -149.7798
220.000000, 86.958, -149.9636
224.000000, 86.898, -150.2606
227.000000, 86.852, -150.5106
230.000000, 86.809, -150.7624
233.000000, 86.770, -151.0051
236.000000, 86.731, -151.2456
240.000000, 86.678, -151.5333
243.000000, 86.641, -151.7343
247.000000, 86.591, -152.0181
250.000000, 86.554, -152.2188
254.000000, 86.506, -152.4595
258.000000, 86.460, -152.6934
262.000000, 86.418, -152.9219
265.000000, 86.388, -153.0894
269.000000, 86.346, -153.3129
272.000000, 86.315, -153.4653
276.000000, 86.277, -153.6600
280.000000, 86.244, -153.8511
285.000000, 86.200, -154.0746
290.000000, 86.155, -154.2729
295.000000, 86.111, -154.4655
300.000000, 86.070, -154.6562
304.000000, 86.036, -154.7941
307.000000, 86.011, -154.8973
311.000000, 85.979, -155.0314
315.000000, 85.949, -155.1547
320.000000, 85.916, -155.2977
325.000000, 85.881, -155.4296
330.000000, 85.846, -155.5498
335.000000, 85.811, -155.6772
340.000000, 85.779, -155.7891
345.000000, 85.748, -155.8826
350.000000, 85.717, -155.9694
355.000000, 85.686, -156.0511
360.000000, 85.656, -156.1216
365.000000, 85.627, -156.1774
370.000000, 85.598, -156.2328
375.000000, 85.572, -156.2870
382.000000, 85.538, -156.3507
387.000000, 85.514, -156.4069
395.000000, 85.477, -156.4908
400.000000, 85.452, -156.5348
406.000000, 85.422, -156.5710
412.000000, 85.392, -156.5915
418.000000, 85.362, -156.6031
425.000000, 85.329, -156.6058
431.000000, 85.300, -156.5869
437.000000, 85.273, -156.5621
444.000000, 85.243, -156.5226
450.000000, 85.217, -156.4880
455.000000, 85.196, -156.4631
462.000000, 85.168, -156.4229
468.000000, 85.145, -156.3685
475.000000, 85.119, -156.2879
482.000000, 85.095, -156.2062
487.000000, 85.078, -156.1402
494.000000, 85.055, -156.0582
500.000000, 85.034, -156.0024
508.000000, 85.007, -155.9252
515.000000, 84.981, -155.8576
522.000000, 84.955, -155.7477
530.000000, 84.929, -155.6010
538.000000, 84.902, -155.4525
545.000000, 84.878, -155.3132
552.000000, 84.855, -155.1743
560.000000, 84.829, -155.0006
570.000000, 84.797, -154.7819
580.000000, 84.764, -154.5587
590.000000, 84.732, -154.3318
600.000000, 84.701, -154.0818
608.000000, 84.677, -153.8613
615.000000, 84.655, -153.6584
622.000000, 84.633, -153.4457
630.000000, 84.609, -153.2006
640.000000, 84.580, -152.8785
650.000000, 84.552, -152.5425
660.000000, 84.523, -152.1929
670.000000, 84.496, -151.8202
680.000000, 84.469, -151.4421
690.000000, 84.444, -151.0397
700.000000, 84.420, -150.6268
710.000000, 84.395, -150.1946
720.000000, 84.373, -149.7458
730.000000, 84.351, -149.2889
740.000000, 84.331, -148.8173
750.000000, 84.313, -148.3255
762.000000, 84.292, -147.7166
775.000000, 84.272, -147.0250
788.000000, 84.255, -146.3118
800.000000, 84.243, -145.6442
812.000000, 84.234, -144.9531
825.000000, 84.229, -144.1707
838.000000, 84.227, -143.3655
850.000000, 84.229, -142.6083
862.000000, 84.235, -141.8335
875.000000, 84.246, -140.9658
885.000000, 84.258, -140.2899
900.000000, 84.283, -139.2590
912.000000, 84.307, -138.4270
925.000000, 84.338, -137.5211
938.000000, 84.376, -136.6126
950.000000, 84.415, -135.7725
962.000000, 84.459, -134.9233
975.000000, 84.510, -133.9900
988.000000, 84.565, -133.0435
1000.000000, 84.620, -132.1617
1015.000000, 84.697, -131.0365
1030.000000, 84.783, -129.8773
1044.000000, 84.876, -128.7715
1060.000000, 85.002, -127.5048
1075.000000, 85.138, -126.3399
1090.000000, 85.290, -125.2217
1106.000000, 85.468, -124.1041
1120.000000, 85.637, -123.2162
1138.000000, 85.868, -122.2130
1150.000000, 86.026, -121.6281
1172.000000, 86.323, -120.7222
1180.000000, 86.432, -120.4481
1206.000000, 86.786, -119.7479
1220.000000, 86.975, -119.4757
1241.000000, 87.252, -119.1967
1250.000000, 87.368, -119.1263
1265.000000, 87.559, -119.0684
1280.000000, 87.744, -119.0739
1315.000000, 88.151, -119.3041
1320.000000, 88.206, -119.3582
1340.000000, 88.417, -119.6220
1360.000000, 88.613, -119.9543
1380.000000, 88.796, -120.3310
1400.000000, 88.966, -120.7367
1430.000000, 89.199, -121.3865
1450.000000, 89.340, -121.8297
1475.000000, 89.500, -122.3833
1500.000000, 89.645, -122.9243
1525.000000, 89.777, -123.4366
1550.000000, 89.898, -123.9262
1575.000000, 90.010, -124.3884
1600.000000, 90.113, -124.8165
1625.000000, 90.211, -125.2097
1650.000000, 90.302, -125.5728
1675.000000, 90.388, -125.9011
1700.000000, 90.470, -126.1971
1725.000000, 90.550, -126.4677
1750.000000, 90.628, -126.7141
1775.000000, 90.704, -126.9351
1800.000000, 90.779, -127.1345
1825.000000, 90.854, -127.3123
1850.000000, 90.929, -127.4681
1875.000000, 91.004, -127.6072
1900.000000, 91.078, -127.7312
1925.000000, 91.153, -127.8463
1950.000000, 91.229, -127.9547
1975.000000, 91.305, -128.0552
2000.000000, 91.382, -128.1496
2030.000000, 91.477, -128.2581
2060.000000, 91.573, -128.3623
2090.000000, 91.671, -128.4635
2120.000000, 91.770, -128.5632
2140.000000, 91.838, -128.6309
2180.000000, 91.975, -128.7748
2200.000000, 92.046, -128.8502
2240.000000, 92.189, -129.0112
2270.000000, 92.299, -129.1425
2300.000000, 92.410, -129.2900
2330.000000, 92.523, -129.4550
2360.000000, 92.638, -129.6389
2400.000000, 92.795, -129.9138
2430.000000, 92.915, -130.1450
2470.000000, 93.077, -130.4929
2500.000000, 93.200, -130.7874
2540.000000, 93.367, -131.2301
2580.000000, 93.535, -131.7295
2620.000000, 93.704, -132.2872
2650.000000, 93.832, -132.7468
2690.000000, 94.001, -133.4202
2720.000000, 94.128, -133.9761
2760.000000, 94.296, -134.7885
2800.000000, 94.462, -135.6859
2850.000000, 94.663, -136.9305
2900.000000, 94.856, -138.3106
2950.000000, 95.037, -139.8332
3000.000000, 95.204, -141.4910
3040.000000, 95.324, -142.9078
3070.000000, 95.406, -144.0245
3110.000000, 95.503, -145.5848
3150.000000, 95.584, -147.2170
3200.000000, 95.660, -149.3429
3250.000000, 95.705, -151.5424
3300.000000, 95.718, -153.7852
3350.000000, 95.698, -156.0410
3400.000000, 95.644, -158.2781
3450.000000, 95.557, -160.4650
3500.000000, 95.439, -162.5718
3550.000000, 95.293, -164.5746
3600.000000, 95.123, -166.4559
3650.000000, 94.932, -168.2010
3700.000000, 94.724, -169.8063
3750.000000, 94.502, -171.2762
3820.000000, 94.171, -173.1121
3870.000000, 93.923, -174.2665
3950.000000, 93.511, -175.8369
4000.000000, 93.246, -176.6492
4060.000000, 92.922, -177.4538
4120.000000, 92.596, -178.0731
4180.000000, 92.268, -178.5120
4250.000000, 91.886, -178.8049
4310.000000, 91.561, -178.8793
4370.000000, 91.241, -178.7986
4440.000000, 90.875, -178.5114
4500.000000, 90.568, -178.1055
4550.000000, 90.318, -177.6627
4620.000000, 89.976, -176.8754
4680.000000, 89.692, -176.0267
4750.000000, 89.376, -174.7875
4820.000000, 89.099, -173.2344
4870.000000, 88.945, -172.0035
4940.000000, 88.792, -170.4166
5000.000000, 88.684, -169.3644
5080.000000, 88.516, -168.1896
5150.000000, 88.346, -167.0931
5220.000000, 88.177, -165.8445
5300.000000, 87.998, -164.2650
5380.000000, 87.844, -162.5654
5450.000000, 87.729, -161.0100
5520.000000, 87.632, -159.4159
5600.000000, 87.545, -157.5551
5700.000000, 87.470, -155.1865
5800.000000, 87.432, -152.7951
5900.000000, 87.435, -150.3967
6000.000000, 87.476, -148.0118
6080.000000, 87.537, -146.1206
6150.000000, 87.613, -144.4890
6220.000000, 87.711, -142.8843
6300.000000, 87.849, -141.0930
6400.000000, 88.063, -138.9429
6500.000000, 88.323, -136.9243
6600.000000, 88.631, -135.0715
6700.000000, 88.989, -133.4213
6800.000000, 89.397, -132.0288
6900.000000, 89.855, -130.9404
7000.000000, 90.361, -130.2084
7100.000000, 90.915, -129.8895
7200.000000, 91.515, -130.0585
7300.000000, 92.160, -130.8059
7400.000000, 92.847, -132.2424
7500.000000, 93.568, -134.5192
7620.000000, 94.455, -138.6603
7750.000000, 95.364, -145.3014
7880.000000, 96.055, -154.3632
8000.000000, 96.329, -164.3871
8120.000000, 96.151, -174.8737
8250.000000, 95.473, 174.7591
8380.000000, 94.446, 166.5235
8500.000000, 93.355, 161.0746
8620.000000, 92.250, 157.4467
8750.000000, 91.115, 155.0887
8850.000000, 90.311, 154.0923
9000.000000, 89.229, 153.4819
9120.000000, 88.466, 153.4783
9250.000000, 87.729, 153.7319
9380.000000, 87.070, 154.0997
9500.000000, 86.514, 154.4415
9620.000000, 85.995, 154.7196
9750.000000, 85.455, 154.9105
9880.000000, 84.919, 154.9913
10000.000000, 84.410, 155.0195
10150.000000, 83.728, 155.1586
10300.000000, 82.990, 155.7474
10440.000000, 82.277, 157.0389
10600.000000, 81.507, 159.6288
10750.000000, 80.920, 162.9796
10900.000000, 80.522, 166.6815
11060.000000, 80.302, 170.3098
11200.000000, 80.232, 172.8488
11380.000000, 80.227, 175.1214
11500.000000, 80.242, 176.0994
11720.000000, 80.254, 177.0536
11800.000000, 80.248, 177.1956
12060.000000, 80.195, 177.1875
12200.000000, 80.145, 177.0059
12410.000000, 80.055, 176.6340
12500.000000, 80.020, 176.4600
12650.000000, 79.978, 176.1314
12800.000000, 79.953, 175.6954
13150.000000, 79.947, 174.3663
13200.000000, 79.960, 174.1438
13400.000000, 80.059, 173.0762
13600.000000, 80.249, 171.5551
13800.000000, 80.529, 169.2801
14000.000000, 80.882, 165.8695
14300.000000, 81.394, 157.8973
14500.000000, 81.535, 150.8162
14750.000000, 81.368, 141.7931
15000.000000, 81.139, 133.8928
15250.000000, 81.105, 125.0510
15500.000000, 80.975, 113.7256
15750.000000, 80.450, 101.0038
16000.000000, 79.500, 88.5974
16250.000000, 78.259, 77.6190
16500.000000, 76.898, 68.3898
16750.000000, 75.567, 60.7430
17000.000000, 74.369, 54.2538
17250.000000, 73.388, 48.3093
17500.000000, 72.693, 42.2705
17750.000000, 72.303, 35.2589
18000.000000, 72.193, 26.3127
18250.000000, 72.301, 14.6664
18500.000000, 72.519, -0.4448
18750.000000, 72.647, -19.5469
19000.000000, 72.419, -42.4360
19250.000000, 71.616, -68.0021
19500.000000, 70.159, -94.7584
19750.000000, 68.192, -121.1578
20000.000000, 66.567, -141.9963
