* Measurement data measured by REW V5.20.13
* Source: C:\Users\Raeemax\Desktop\Coupler-specific Neutral.csv
* Format: Comma/Tab/Space delimited data
* Dated: Aug 16, 2023 12:13:06 PM
* REW Settings:
*  C-weighting compensation: Off
*  Target level: 75.0 dB
* Note: 480 values loaded, 20 Hz to 20,186 Hz log spaced
* Measurement: Coupler-specific Neutral
* Smoothing: 1/24 octave
* Frequency Step: 1/48 octave
* Start Frequency: 20.000 Hz
*
* Freq(Hz) SPL(dB)
20.000000 6.946
20.299999 6.939
20.600000 6.931
20.900000 6.923
21.200001 6.915
21.400000 6.910
21.799999 6.899
22.000000 6.893
22.400000 6.880
22.700001 6.870
23.000000 6.859
23.299999 6.847
23.600000 6.835
24.000000 6.818
24.299999 6.805
24.700001 6.786
25.000000 6.772
25.400000 6.752
25.799999 6.733
26.200001 6.713
26.500000 6.697
26.900000 6.676
27.200001 6.660
27.600000 6.638
28.000000 6.616
28.500000 6.589
29.000000 6.561
29.500000 6.532
30.000000 6.505
30.400000 6.482
30.700001 6.464
31.100000 6.441
31.500000 6.418
32.000000 6.389
32.500000 6.360
33.000000 6.331
33.500000 6.303
34.000000 6.274
34.500000 6.245
35.000000 6.217
35.500000 6.189
36.000000 6.161
36.500000 6.133
37.000000 6.105
37.500000 6.078
38.200001 6.042
38.700001 6.015
39.500000 5.974
40.000000 5.949
40.599998 5.919
41.200001 5.890
41.799999 5.862
42.500000 5.829
43.099998 5.802
43.700001 5.775
44.400002 5.744
45.000000 5.718
45.500000 5.697
46.200001 5.667
46.799999 5.643
47.500000 5.614
48.200001 5.586
48.700001 5.566
49.400002 5.539
50.000000 5.516
50.799999 5.486
51.500000 5.459
52.200001 5.433
53.000000 5.404
53.799999 5.375
54.500000 5.349
55.200001 5.324
56.000000 5.296
57.000000 5.260
58.000000 5.224
59.000000 5.189
60.000000 5.154
60.799999 5.126
61.500000 5.102
62.200001 5.077
63.000000 5.050
64.000000 5.015
65.000000 4.981
66.000000 4.947
67.000000 4.913
68.000000 4.878
69.000000 4.844
70.000000 4.810
71.000000 4.776
72.000000 4.743
73.000000 4.709
74.000000 4.675
75.000000 4.642
76.199997 4.602
77.500000 4.560
78.800003 4.517
80.000000 4.478
81.199997 4.440
82.500000 4.399
83.800003 4.358
85.000000 4.321
86.199997 4.283
87.500000 4.243
88.500000 4.213
90.000000 4.167
91.199997 4.131
92.500000 4.092
93.800003 4.054
95.000000 4.018
96.199997 3.983
97.500000 3.944
98.800003 3.906
100.000000 3.871
101.500000 3.827
103.000000 3.783
104.400002 3.743
106.000000 3.697
107.500000 3.653
109.000000 3.611
110.599998 3.565
112.000000 3.526
113.800003 3.476
115.000000 3.442
117.199997 3.381
118.000000 3.359
120.599998 3.289
122.000000 3.251
124.099998 3.196
125.000000 3.172
126.500000 3.133
128.000000 3.095
131.500000 3.008
132.000000 2.995
134.000000 2.947
136.000000 2.899
138.000000 2.853
140.000000 2.807
143.000000 2.741
145.000000 2.698
147.500000 2.646
150.000000 2.595
152.500000 2.546
155.000000 2.498
157.500000 2.452
160.000000 2.407
162.500000 2.363
165.000000 2.319
167.500000 2.278
170.000000 2.237
172.500000 2.197
175.000000 2.159
177.500000 2.121
180.000000 2.084
182.500000 2.049
185.000000 2.014
187.500000 1.981
190.000000 1.948
192.500000 1.916
195.000000 1.885
197.500000 1.856
200.000000 1.827
203.000000 1.793
206.000000 1.761
209.000000 1.731
212.000000 1.701
214.000000 1.681
218.000000 1.644
220.000000 1.627
224.000000 1.594
227.000000 1.570
230.000000 1.548
233.000000 1.527
236.000000 1.506
240.000000 1.481
243.000000 1.462
247.000000 1.439
250.000000 1.423
254.000000 1.402
258.000000 1.381
262.000000 1.361
265.000000 1.346
269.000000 1.327
272.000000 1.314
276.000000 1.296
280.000000 1.279
285.000000 1.258
290.000000 1.239
295.000000 1.219
300.000000 1.201
304.000000 1.186
307.000000 1.176
311.000000 1.162
315.000000 1.149
320.000000 1.133
325.000000 1.117
330.000000 1.102
335.000000 1.088
340.000000 1.074
345.000000 1.060
350.000000 1.047
355.000000 1.034
360.000000 1.022
365.000000 1.010
370.000000 0.997
375.000000 0.985
382.000000 0.968
387.000000 0.955
395.000000 0.935
400.000000 0.921
406.000000 0.905
412.000000 0.888
418.000000 0.872
425.000000 0.851
431.000000 0.834
437.000000 0.816
444.000000 0.795
450.000000 0.777
455.000000 0.762
462.000000 0.741
468.000000 0.723
475.000000 0.702
482.000000 0.681
487.000000 0.667
494.000000 0.646
500.000000 0.628
508.000000 0.604
515.000000 0.584
522.000000 0.563
530.000000 0.540
538.000000 0.518
545.000000 0.499
552.000000 0.480
560.000000 0.459
570.000000 0.434
580.000000 0.410
590.000000 0.388
600.000000 0.366
608.000000 0.348
615.000000 0.333
622.000000 0.318
630.000000 0.301
640.000000 0.279
650.000000 0.257
660.000000 0.235
670.000000 0.212
680.000000 0.189
690.000000 0.165
700.000000 0.140
710.000000 0.116
720.000000 0.092
730.000000 0.069
740.000000 0.047
750.000000 0.025
762.000000 0.002
775.000000 -0.021
788.000000 -0.041
800.000000 -0.057
812.000000 -0.071
825.000000 -0.082
838.000000 -0.090
850.000000 -0.096
862.000000 -0.100
875.000000 -0.102
885.000000 -0.102
900.000000 -0.100
912.000000 -0.097
925.000000 -0.091
938.000000 -0.084
950.000000 -0.074
962.000000 -0.062
975.000000 -0.046
988.000000 -0.025
1000.000000 -0.001
1015.000000 0.034
1030.000000 0.075
1044.000000 0.117
1060.000000 0.171
1075.000000 0.223
1090.000000 0.276
1106.000000 0.331
1120.000000 0.377
1138.000000 0.433
1150.000000 0.469
1172.000000 0.529
1180.000000 0.550
1206.000000 0.618
1220.000000 0.655
1241.000000 0.712
1250.000000 0.737
1265.000000 0.781
1280.000000 0.827
1315.000000 0.938
1320.000000 0.955
1340.000000 1.022
1360.000000 1.091
1380.000000 1.162
1400.000000 1.232
1430.000000 1.340
1450.000000 1.412
1475.000000 1.503
1500.000000 1.596
1525.000000 1.691
1550.000000 1.788
1575.000000 1.886
1600.000000 1.986
1625.000000 2.087
1650.000000 2.190
1675.000000 2.295
1700.000000 2.402
1725.000000 2.512
1750.000000 2.626
1775.000000 2.743
1800.000000 2.865
1825.000000 2.991
1850.000000 3.121
1875.000000 3.256
1900.000000 3.395
1925.000000 3.539
1950.000000 3.688
1975.000000 3.842
2000.000000 4.002
2030.000000 4.202
2060.000000 4.409
2090.000000 4.624
2120.000000 4.845
2140.000000 4.994
2180.000000 5.293
2200.000000 5.439
2240.000000 5.720
2270.000000 5.918
2300.000000 6.101
2330.000000 6.271
2360.000000 6.430
2400.000000 6.628
2430.000000 6.768
2470.000000 6.947
2500.000000 7.076
2540.000000 7.243
2580.000000 7.403
2620.000000 7.558
2650.000000 7.670
2690.000000 7.812
2720.000000 7.913
2760.000000 8.037
2800.000000 8.149
2850.000000 8.269
2900.000000 8.369
2950.000000 8.448
3000.000000 8.506
3040.000000 8.536
3070.000000 8.551
3110.000000 8.560
3150.000000 8.558
3200.000000 8.540
3250.000000 8.506
3300.000000 8.457
3350.000000 8.395
3400.000000 8.320
3450.000000 8.236
3500.000000 8.144
3550.000000 8.046
3600.000000 7.945
3650.000000 7.840
3700.000000 7.734
3750.000000 7.627
3820.000000 7.480
3870.000000 7.378
3950.000000 7.220
4000.000000 7.127
4060.000000 7.020
4120.000000 6.916
4180.000000 6.814
4250.000000 6.693
4310.000000 6.586
4370.000000 6.474
4440.000000 6.340
4500.000000 6.223
4550.000000 6.127
4620.000000 5.996
4680.000000 5.888
4750.000000 5.766
4820.000000 5.650
4870.000000 5.571
4940.000000 5.464
5000.000000 5.378
5080.000000 5.272
5150.000000 5.188
5220.000000 5.113
5300.000000 5.035
5380.000000 4.961
5450.000000 4.897
5520.000000 4.833
5600.000000 4.758
5700.000000 4.663
5800.000000 4.568
5900.000000 4.475
6000.000000 4.388
6080.000000 4.325
6150.000000 4.276
6220.000000 4.233
6300.000000 4.192
6400.000000 4.154
6500.000000 4.129
6600.000000 4.118
6700.000000 4.120
6800.000000 4.133
6900.000000 4.154
7000.000000 4.179
7100.000000 4.205
7200.000000 4.228
7300.000000 4.245
7400.000000 4.250
7500.000000 4.240
7620.000000 4.203
7750.000000 4.128
7880.000000 4.012
8000.000000 3.863
8120.000000 3.671
8250.000000 3.416
8380.000000 3.115
8500.000000 2.803
8620.000000 2.466
8750.000000 2.083
8850.000000 1.789
9000.000000 1.366
9120.000000 1.063
9250.000000 0.789
9380.000000 0.581
9500.000000 0.452
9620.000000 0.384
9750.000000 0.375
9880.000000 0.431
10000.000000 0.542
10150.000000 0.759
10300.000000 1.049
10440.000000 1.354
10600.000000 1.684
10750.000000 1.905
10900.000000 1.989
11060.000000 1.912
11200.000000 1.721
11380.000000 1.342
11500.000000 1.032
11720.000000 0.383
11800.000000 0.136
12060.000000 -0.652
12200.000000 -1.027
12410.000000 -1.477
12500.000000 -1.631
12650.000000 -1.835
12800.000000 -1.982
13150.000000 -2.207
13200.000000 -2.232
13400.000000 -2.327
13600.000000 -2.427
13800.000000 -2.551
14000.000000 -2.705
14300.000000 -2.988
14500.000000 -3.201
14750.000000 -3.474
15000.000000 -3.723
15250.000000 -3.920
15500.000000 -4.048
15750.000000 -4.099
16000.000000 -4.080
16250.000000 -4.006
16500.000000 -3.900
16750.000000 -3.782
17000.000000 -3.673
17250.000000 -3.590
17500.000000 -3.548
17750.000000 -3.567
18000.000000 -3.666
18250.000000 -3.867
18500.000000 -4.188
18750.000000 -4.642
19000.000000 -5.229
19250.000000 -5.956
19500.000000 -6.892
19750.000000 -8.237
20000.000000 -9.666
