* Measurement data measured by REW V5.31
* Source: Headset (DS by VECLAN.COM), MICROPHONE (Master Volume), L, volume: 0.720. Timing signal peak level -19.4 dBFS, measurement signal peak level -11.4 dBFS
* Format: 2M Log Swept Sine, 1 sweep at -12.0 dBFS using an acoustic timing reference
* Dated: Apr 24, 2024 4:10:16 PM
* REW Settings:
*  C-weighting compensation: Off
*  Target level: 85.0 dB
* Note: ; Delay -0.0251 ms (-8.6 mm, -0.34 in) using estimated IR delay relative to Acoustic reference played from HEADPHONE R with no timing offset
* Measurement: Audeze MM-100 R3
* Smoothing: 1/24 octave
* Frequency Step: 1/48 octave
* Start Frequency: 1.000 Hz
*
* Freq(Hz), SPL(dB), Phase(degrees)
1.000000, 78.475, 79.6103
1.015000, 78.759, 78.5852
1.030000, 79.038, 77.6028
1.044000, 79.293, 76.7205
1.060000, 79.578, 75.7489
1.075000, 79.837, 74.8698
1.090000, 80.087, 74.0182
1.106000, 80.347, 73.1404
1.120000, 80.574, 72.4031
1.138000, 80.871, 71.5003
1.150000, 81.071, 70.9262
1.172000, 81.440, 69.9223
1.180000, 81.575, 69.5676
1.206000, 82.015, 68.4742
1.220000, 82.252, 67.9208
1.241000, 82.604, 67.1339
1.250000, 82.753, 66.8116
1.265000, 83.001, 66.2935
1.280000, 83.244, 65.7977
1.315000, 83.795, 64.7207
1.320000, 83.872, 64.5753
1.340000, 84.170, 64.0127
1.360000, 84.455, 63.4802
1.380000, 84.725, 62.9358
1.400000, 84.980, 62.4007
1.430000, 85.327, 61.6378
1.450000, 85.533, 61.1526
1.475000, 85.760, 60.5717
1.500000, 85.950, 60.0235
1.525000, 86.107, 59.5103
1.550000, 86.234, 59.0309
1.575000, 86.335, 58.5621
1.600000, 86.415, 58.0846
1.625000, 86.476, 57.6354
1.650000, 86.523, 57.2121
1.675000, 86.561, 56.8124
1.700000, 86.592, 56.4339
1.725000, 86.620, 56.0746
1.750000, 86.651, 55.7321
1.775000, 86.687, 55.3875
1.800000, 86.732, 55.0225
1.825000, 86.789, 54.6690
1.850000, 86.855, 54.3255
1.875000, 86.923, 53.9929
1.900000, 86.991, 53.6723
1.925000, 87.057, 53.3640
1.950000, 87.123, 53.0689
1.975000, 87.187, 52.7702
2.000000, 87.250, 52.4519
2.030000, 87.326, 52.0885
2.060000, 87.400, 51.7429
2.090000, 87.472, 51.4145
2.120000, 87.544, 51.1028
2.140000, 87.592, 50.9037
2.180000, 87.686, 50.5045
2.200000, 87.732, 50.2944
2.240000, 87.823, 49.8902
2.270000, 87.890, 49.6002
2.300000, 87.955, 49.3215
2.330000, 88.019, 49.0541
2.360000, 88.083, 48.7977
2.400000, 88.166, 48.4248
2.430000, 88.228, 48.1510
2.470000, 88.309, 47.8025
2.500000, 88.370, 47.5530
2.540000, 88.450, 47.2357
2.580000, 88.530, 46.9170
2.620000, 88.610, 46.5776
2.650000, 88.668, 46.3344
2.690000, 88.746, 46.0228
2.720000, 88.804, 45.7978
2.760000, 88.881, 45.5095
2.800000, 88.956, 45.1914
2.850000, 89.050, 44.7994
2.900000, 89.143, 44.4182
2.950000, 89.235, 44.0472
3.000000, 89.326, 43.6581
3.040000, 89.398, 43.3452
3.070000, 89.451, 43.1156
3.110000, 89.522, 42.8150
3.150000, 89.593, 42.5192
3.200000, 89.679, 42.1226
3.250000, 89.765, 41.7128
3.300000, 89.850, 41.3020
3.350000, 89.933, 40.8924
3.400000, 90.017, 40.4521
3.450000, 90.099, 40.0015
3.500000, 90.180, 39.5545
3.550000, 90.258, 39.1109
3.600000, 90.334, 38.6423
3.650000, 90.407, 38.1610
3.700000, 90.477, 37.6734
3.750000, 90.545, 37.1771
3.820000, 90.637, 36.4398
3.870000, 90.699, 35.9075
3.950000, 90.791, 35.0708
4.000000, 90.844, 34.5381
4.060000, 90.903, 33.8917
4.120000, 90.957, 33.2351
4.180000, 91.006, 32.5653
4.250000, 91.057, 31.7616
4.310000, 91.095, 31.0990
4.370000, 91.126, 30.4648
4.440000, 91.155, 29.7201
4.500000, 91.173, 29.0854
4.550000, 91.183, 28.5628
4.620000, 91.191, 27.8298
4.680000, 91.193, 27.2361
4.750000, 91.190, 26.6076
4.820000, 91.181, 26.0148
4.870000, 91.170, 25.6100
4.940000, 91.150, 25.0783
5.000000, 91.130, 24.6485
5.080000, 91.101, 24.1401
5.150000, 91.075, 23.7795
5.220000, 91.047, 23.4692
5.300000, 91.012, 23.1809
5.380000, 90.979, 22.9611
5.450000, 90.955, 22.8058
5.520000, 90.938, 22.7105
5.600000, 90.925, 22.6710
5.700000, 90.919, 22.6950
5.800000, 90.927, 22.7540
5.900000, 90.954, 22.8045
6.000000, 91.001, 22.8822
6.080000, 91.050, 22.9309
6.150000, 91.099, 22.9474
6.220000, 91.154, 22.9035
6.300000, 91.224, 22.8000
6.400000, 91.323, 22.6063
6.500000, 91.426, 22.3154
6.600000, 91.527, 21.9096
6.700000, 91.624, 21.3718
6.800000, 91.718, 20.7366
6.900000, 91.802, 20.0204
7.000000, 91.871, 19.2346
7.100000, 91.925, 18.3586
7.200000, 91.964, 17.4336
7.300000, 91.985, 16.5009
7.400000, 91.986, 15.5715
7.500000, 91.967, 14.6223
7.620000, 91.923, 13.5284
7.750000, 91.848, 12.4710
7.880000, 91.745, 11.5246
8.000000, 91.634, 10.7884
8.120000, 91.513, 10.2271
8.250000, 91.372, 9.8151
8.380000, 91.231, 9.5930
8.500000, 91.112, 9.5593
8.620000, 91.002, 9.6918
8.750000, 90.901, 9.9594
8.850000, 90.841, 10.2240
9.000000, 90.780, 10.7127
9.120000, 90.753, 11.1124
9.250000, 90.746, 11.4995
9.380000, 90.759, 11.8393
9.500000, 90.781, 12.0802
9.620000, 90.810, 12.2391
9.750000, 90.846, 12.3259
9.880000, 90.874, 12.3333
10.000000, 90.888, 12.2827
10.150000, 90.891, 12.1190
10.300000, 90.880, 11.9270
10.440000, 90.859, 11.7337
10.600000, 90.829, 11.5082
10.750000, 90.800, 11.3060
10.900000, 90.773, 11.1061
11.060000, 90.748, 10.8573
11.200000, 90.730, 10.5883
11.380000, 90.707, 10.2062
11.500000, 90.691, 9.9218
11.720000, 90.655, 9.3446
11.800000, 90.639, 9.1171
12.060000, 90.575, 8.3188
12.200000, 90.531, 7.8502
12.410000, 90.451, 7.1886
12.500000, 90.411, 6.9362
12.650000, 90.336, 6.5655
12.800000, 90.256, 6.2699
13.150000, 90.068, 5.8654
13.200000, 90.043, 5.8350
13.400000, 89.952, 5.8012
13.600000, 89.878, 5.8799
13.800000, 89.823, 6.0407
14.000000, 89.791, 6.2381
14.300000, 89.781, 6.4588
14.500000, 89.797, 6.5577
14.750000, 89.836, 6.5780
15.000000, 89.891, 6.4395
15.250000, 89.954, 6.0601
15.500000, 90.004, 5.5103
15.750000, 90.024, 4.8529
16.000000, 90.004, 4.1917
16.250000, 89.945, 3.6218
16.500000, 89.858, 3.3122
16.750000, 89.765, 3.3516
17.000000, 89.698, 3.7210
17.250000, 89.682, 4.2720
17.500000, 89.726, 4.8316
17.750000, 89.818, 5.1889
18.000000, 89.930, 5.2144
18.250000, 90.031, 4.8680
18.500000, 90.089, 4.2713
18.750000, 90.091, 3.5959
19.000000, 90.038, 3.0235
19.250000, 89.947, 2.6882
19.500000, 89.845, 2.6818
19.750000, 89.758, 2.9809
20.000000, 89.706, 3.4694
20.299999, 89.694, 4.0577
20.600000, 89.718, 4.4860
20.900000, 89.746, 4.6849
21.200001, 89.755, 4.7057
21.400000, 89.745, 4.6905
21.799999, 89.699, 4.7419
22.000000, 89.672, 4.8291
22.400000, 89.623, 5.0527
22.700001, 89.591, 5.2319
23.000000, 89.555, 5.4019
23.299999, 89.511, 5.5787
23.600000, 89.461, 5.8339
24.000000, 89.403, 6.3384
24.299999, 89.381, 6.7808
24.700001, 89.383, 7.3555
25.000000, 89.403, 7.7122
25.400000, 89.442, 8.0456
25.799999, 89.494, 8.2515
26.200001, 89.564, 8.2633
26.500000, 89.623, 8.0704
26.900000, 89.688, 7.5023
27.200001, 89.705, 6.8889
27.600000, 89.666, 6.0347
28.000000, 89.571, 5.4218
28.500000, 89.440, 5.2135
29.000000, 89.374, 5.4360
29.500000, 89.386, 5.5976
30.000000, 89.428, 5.4783
30.400000, 89.457, 5.2197
30.700001, 89.474, 4.9836
31.100000, 89.491, 4.6324
31.500000, 89.495, 4.2487
32.000000, 89.471, 3.8384
32.500000, 89.419, 3.6678
33.000000, 89.370, 3.8575
33.500000, 89.357, 4.2982
34.000000, 89.390, 4.7803
34.500000, 89.456, 5.0908
35.000000, 89.524, 5.1184
35.500000, 89.560, 4.8722
36.000000, 89.535, 4.5498
36.500000, 89.456, 4.4419
37.000000, 89.368, 4.7261
37.500000, 89.325, 5.2663
38.200001, 89.366, 5.8044
38.700001, 89.419, 5.7189
39.500000, 89.443, 5.0049
40.000000, 89.408, 4.5681
40.599998, 89.355, 4.3078
41.200001, 89.329, 4.2885
41.799999, 89.333, 4.3251
42.500000, 89.351, 4.4410
43.099998, 89.387, 4.6910
43.700001, 89.454, 4.8994
44.400002, 89.513, 4.9170
45.000000, 89.504, 5.0937
45.500000, 89.498, 5.6140
46.200001, 89.585, 6.4358
46.799999, 89.700, 6.4978
47.500000, 89.723, 5.9935
48.200001, 89.637, 5.9713
48.700001, 89.611, 6.3723
49.400002, 89.681, 6.6876
50.000000, 89.745, 6.2650
50.799999, 89.701, 5.4636
51.500000, 89.617, 5.4059
52.200001, 89.611, 5.7802
53.000000, 89.686, 5.9952
53.799999, 89.768, 5.8397
54.500000, 89.814, 5.5733
55.200001, 89.832, 5.3230
56.000000, 89.832, 5.1074
57.000000, 89.794, 4.7940
58.000000, 89.688, 4.7630
59.000000, 89.614, 5.1114
60.000000, 89.570, 5.3376
60.799999, 89.541, 5.5548
61.500000, 89.537, 5.7427
62.200001, 89.543, 5.9333
63.000000, 89.581, 6.1979
64.000000, 89.674, 6.0438
65.000000, 89.651, 5.4800
66.000000, 89.553, 5.8890
67.000000, 89.575, 6.7120
68.000000, 89.620, 7.0005
69.000000, 89.632, 7.3701
70.000000, 89.691, 7.7752
71.000000, 89.772, 7.8478
72.000000, 89.853, 7.6839
73.000000, 89.924, 7.2969
74.000000, 89.964, 6.8343
75.000000, 89.990, 6.5419
76.199997, 90.042, 6.2134
77.500000, 90.072, 5.7450
78.800003, 90.106, 5.3407
80.000000, 90.094, 4.4011
81.199997, 89.916, 3.7327
82.500000, 89.738, 4.6241
83.800003, 89.787, 5.5304
85.000000, 89.856, 5.4796
86.199997, 89.889, 5.2547
87.500000, 89.904, 4.9814
88.500000, 89.898, 4.8337
90.000000, 89.883, 4.8621
91.199997, 89.889, 5.0330
92.500000, 89.916, 5.1619
93.800003, 89.931, 5.1269
95.000000, 89.925, 5.1340
96.199997, 89.917, 5.1043
97.500000, 89.884, 5.0373
98.800003, 89.845, 5.1728
100.000000, 89.833, 5.3768
101.500000, 89.839, 5.5933
103.000000, 89.851, 5.8492
104.400002, 89.886, 6.2179
106.000000, 89.968, 6.4602
107.500000, 90.034, 6.2086
109.000000, 90.033, 5.8598
110.599998, 90.017, 5.9372
112.000000, 90.048, 6.2149
113.800003, 90.122, 6.1876
115.000000, 90.112, 5.9172
117.199997, 90.020, 6.1852
118.000000, 90.007, 6.2851
120.599998, 89.934, 6.3236
122.000000, 89.927, 6.5385
124.099998, 89.980, 6.5882
125.000000, 89.996, 6.5511
126.500000, 90.014, 6.5519
128.000000, 90.025, 6.5679
131.500000, 89.980, 6.0884
132.000000, 89.965, 6.0710
134.000000, 89.950, 6.2018
136.000000, 89.996, 6.2245
138.000000, 90.044, 6.2967
140.000000, 90.088, 6.4094
143.000000, 90.089, 6.3124
145.000000, 90.066, 6.3065
147.500000, 90.093, 6.5073
150.000000, 90.163, 6.4205
152.500000, 90.134, 6.2394
155.000000, 90.034, 6.6568
157.500000, 90.026, 6.9049
160.000000, 90.071, 6.3793
162.500000, 90.132, 5.8355
165.000000, 90.176, 5.9922
167.500000, 90.217, 6.3391
170.000000, 90.212, 6.4556
172.500000, 90.213, 6.4858
175.000000, 90.218, 6.3983
177.500000, 90.230, 6.5400
180.000000, 90.247, 6.6325
182.500000, 90.243, 6.6572
185.000000, 90.242, 6.7656
187.500000, 90.258, 6.6955
190.000000, 90.241, 6.5152
192.500000, 90.228, 6.6639
195.000000, 90.245, 6.7821
197.500000, 90.258, 6.7783
200.000000, 90.261, 6.8079
203.000000, 90.263, 6.8285
206.000000, 90.248, 6.7946
209.000000, 90.234, 6.8376
212.000000, 90.244, 6.6085
214.000000, 90.237, 6.5891
218.000000, 90.235, 6.9047
220.000000, 90.232, 6.9612
224.000000, 90.243, 7.0551
227.000000, 90.255, 7.1205
230.000000, 90.253, 7.2160
233.000000, 90.256, 7.2974
236.000000, 90.249, 7.4361
240.000000, 90.221, 7.5938
243.000000, 90.215, 7.5691
247.000000, 90.225, 7.6226
250.000000, 90.232, 7.8830
254.000000, 90.205, 8.4101
258.000000, 90.197, 8.9781
262.000000, 90.239, 8.8594
265.000000, 90.245, 8.7271
269.000000, 90.233, 8.9842
272.000000, 90.249, 9.3273
276.000000, 90.303, 9.6986
280.000000, 90.338, 9.6840
285.000000, 90.338, 9.7018
290.000000, 90.342, 9.8736
295.000000, 90.392, 10.0927
300.000000, 90.422, 10.1589
304.000000, 90.440, 10.1589
307.000000, 90.453, 10.2696
311.000000, 90.470, 10.3894
315.000000, 90.505, 10.4935
320.000000, 90.534, 10.6611
325.000000, 90.531, 10.7882
330.000000, 90.557, 10.8279
335.000000, 90.581, 10.7809
340.000000, 90.593, 10.7584
345.000000, 90.603, 10.8083
350.000000, 90.619, 11.0839
355.000000, 90.638, 11.2658
360.000000, 90.641, 11.4152
365.000000, 90.645, 11.6304
370.000000, 90.656, 11.8097
375.000000, 90.667, 12.0068
382.000000, 90.681, 12.2968
387.000000, 90.697, 12.5279
395.000000, 90.738, 12.8055
400.000000, 90.760, 13.0463
406.000000, 90.785, 13.3054
412.000000, 90.807, 13.3533
418.000000, 90.833, 13.4875
425.000000, 90.876, 13.7417
431.000000, 90.914, 13.9103
437.000000, 90.951, 13.9581
444.000000, 90.990, 14.0631
450.000000, 91.010, 14.0927
455.000000, 91.021, 14.1357
462.000000, 91.039, 14.1722
468.000000, 91.055, 14.2150
475.000000, 91.082, 14.3249
482.000000, 91.109, 14.4053
487.000000, 91.112, 14.4803
494.000000, 91.101, 14.6088
500.000000, 91.102, 14.7068
508.000000, 91.089, 15.0291
515.000000, 91.071, 15.4450
522.000000, 91.076, 15.8405
530.000000, 91.110, 16.2307
538.000000, 91.158, 16.5831
545.000000, 91.199, 16.8794
552.000000, 91.238, 17.1838
560.000000, 91.291, 17.4888
570.000000, 91.343, 17.9368
580.000000, 91.402, 18.2915
590.000000, 91.467, 18.5247
600.000000, 91.540, 18.7553
608.000000, 91.601, 19.0916
615.000000, 91.648, 19.3411
622.000000, 91.686, 19.5173
630.000000, 91.732, 19.6164
640.000000, 91.798, 19.7492
650.000000, 91.856, 20.1347
660.000000, 91.921, 20.4396
670.000000, 91.991, 20.7512
680.000000, 92.089, 21.0753
690.000000, 92.197, 21.2339
700.000000, 92.310, 21.2703
710.000000, 92.417, 21.2814
720.000000, 92.507, 21.2789
730.000000, 92.588, 21.1474
740.000000, 92.664, 20.9461
750.000000, 92.710, 20.8213
762.000000, 92.731, 20.7119
775.000000, 92.768, 20.5418
788.000000, 92.822, 20.6082
800.000000, 92.874, 20.6820
812.000000, 92.961, 20.7497
825.000000, 93.045, 20.7030
838.000000, 93.119, 20.6878
850.000000, 93.192, 20.6433
862.000000, 93.256, 20.4511
875.000000, 93.313, 20.1574
885.000000, 93.337, 19.9981
900.000000, 93.357, 19.8884
912.000000, 93.373, 19.9202
925.000000, 93.405, 20.1202
938.000000, 93.467, 20.4753
950.000000, 93.564, 20.8209
962.000000, 93.680, 20.8742
975.000000, 93.799, 20.6428
988.000000, 93.904, 20.3283
1000.000000, 94.000, 19.9907
1015.000000, 94.106, 19.3138
1030.000000, 94.144, 18.4644
1044.000000, 94.145, 17.8867
1060.000000, 94.166, 17.4585
1075.000000, 94.189, 17.0578
1090.000000, 94.197, 16.5976
1106.000000, 94.217, 16.3455
1120.000000, 94.268, 16.0771
1138.000000, 94.329, 15.3780
1150.000000, 94.330, 14.8900
1172.000000, 94.334, 14.2864
1180.000000, 94.346, 13.9542
1206.000000, 94.253, 12.6183
1220.000000, 94.132, 12.5832
1241.000000, 94.043, 13.1206
1250.000000, 94.015, 13.2930
1265.000000, 94.000, 14.0495
1280.000000, 94.111, 14.9216
1315.000000, 94.297, 14.1037
1320.000000, 94.293, 14.1096
1340.000000, 94.336, 14.4476
1360.000000, 94.437, 14.3671
1380.000000, 94.488, 13.6733
1400.000000, 94.512, 13.1053
1430.000000, 94.481, 11.6188
1450.000000, 94.308, 11.4070
1475.000000, 94.240, 12.0849
1500.000000, 94.163, 12.6887
1525.000000, 94.231, 14.0449
1550.000000, 94.398, 14.4153
1575.000000, 94.581, 14.3477
1600.000000, 94.767, 13.3971
1625.000000, 94.858, 11.7510
1650.000000, 94.840, 9.3669
1675.000000, 94.582, 7.0910
1700.000000, 94.184, 5.9966
1725.000000, 93.695, 5.5453
1750.000000, 93.095, 6.8795
1775.000000, 92.660, 10.1638
1800.000000, 92.493, 13.7835
1825.000000, 92.453, 16.5859
1850.000000, 92.424, 19.4936
1875.000000, 92.514, 22.3907
1900.000000, 92.640, 24.5097
1925.000000, 92.636, 26.1883
1950.000000, 92.517, 29.5007
1975.000000, 92.654, 34.9082
2000.000000, 93.207, 40.1173
2030.000000, 94.186, 43.4815
2060.000000, 95.036, 43.9239
2090.000000, 95.736, 43.5527
2120.000000, 96.267, 42.4412
2140.000000, 96.521, 42.0570
2180.000000, 97.160, 42.9402
2200.000000, 97.620, 43.2205
2240.000000, 98.668, 41.4814
2270.000000, 99.241, 37.9002
2300.000000, 99.532, 34.5209
2330.000000, 99.746, 32.0730
2360.000000, 99.966, 30.0988
2400.000000, 100.313, 27.4005
2430.000000, 100.558, 24.9323
2470.000000, 100.716, 21.1606
2500.000000, 100.701, 19.0656
2540.000000, 100.747, 17.7067
2580.000000, 101.035, 16.5422
2620.000000, 101.433, 13.7772
2650.000000, 101.603, 10.7580
2690.000000, 101.605, 7.0575
2720.000000, 101.527, 5.1941
2760.000000, 101.551, 3.6767
2800.000000, 101.718, 1.6394
2850.000000, 101.854, -1.9859
2900.000000, 101.931, -5.1054
2950.000000, 102.169, -8.9178
3000.000000, 102.250, -14.7956
3040.000000, 102.035, -19.6780
3070.000000, 101.752, -22.9172
3110.000000, 101.245, -26.3135
3150.000000, 100.696, -28.0053
3200.000000, 100.226, -28.8292
3250.000000, 99.938, -29.9002
3300.000000, 99.707, -31.6673
3350.000000, 99.372, -34.1042
3400.000000, 98.870, -35.5935
3450.000000, 98.463, -35.6922
3500.000000, 98.231, -36.0528
3550.000000, 98.009, -37.2437
3600.000000, 97.667, -38.7473
3650.000000, 97.190, -39.2635
3700.000000, 96.801, -38.1094
3750.000000, 96.676, -36.8532
3820.000000, 96.645, -37.0721
3870.000000, 96.552, -38.0349
3950.000000, 96.267, -39.7664
4000.000000, 96.054, -40.7183
4060.000000, 95.753, -42.0651
4120.000000, 95.334, -43.2075
4180.000000, 94.857, -43.5120
4250.000000, 94.334, -42.9423
4310.000000, 93.963, -41.9191
4370.000000, 93.665, -40.8076
4440.000000, 93.391, -39.5624
4500.000000, 93.209, -38.9177
4550.000000, 93.044, -38.7506
4620.000000, 92.717, -38.6366
4680.000000, 92.382, -37.9760
4750.000000, 92.026, -36.4993
4820.000000, 91.777, -34.6021
4870.000000, 91.675, -33.3717
4940.000000, 91.568, -32.2680
5000.000000, 91.415, -31.8121
5080.000000, 91.057, -30.7181
5150.000000, 90.722, -28.1599
5220.000000, 90.634, -23.8620
5300.000000, 91.078, -19.8853
5380.000000, 91.663, -19.7339
5450.000000, 91.971, -21.3680
5520.000000, 92.095, -23.3694
5600.000000, 92.090, -25.7666
5700.000000, 91.857, -28.6613
5800.000000, 91.486, -30.5551
5900.000000, 91.007, -32.4912
6000.000000, 90.236, -33.2457
6080.000000, 89.606, -31.1731
6150.000000, 89.327, -28.1971
6220.000000, 89.288, -26.1456
6300.000000, 89.238, -25.3257
6400.000000, 88.979, -24.1063
6500.000000, 88.754, -21.7698
6600.000000, 88.622, -19.3359
6700.000000, 88.572, -16.8418
6800.000000, 88.603, -14.0884
6900.000000, 88.810, -11.0548
7000.000000, 89.233, -8.4274
7100.000000, 89.808, -6.4468
7200.000000, 90.613, -4.9443
7300.000000, 91.690, -5.4850
7400.000000, 92.790, -9.2201
7500.000000, 93.686, -15.8158
7620.000000, 94.349, -26.1780
7750.000000, 94.605, -38.7392
7880.000000, 94.456, -53.0994
8000.000000, 93.661, -68.6707
8120.000000, 91.850, -84.2908
8250.000000, 88.665, -96.7667
8380.000000, 84.450, -99.3139
8500.000000, 80.416, -87.7361
8620.000000, 77.427, -70.0744
8750.000000, 75.470, -41.8179
8850.000000, 76.384, -7.6717
9000.000000, 80.523, 10.2027
9120.000000, 83.191, 4.0952
9250.000000, 84.728, -10.4724
9380.000000, 84.887, -28.5076
9500.000000, 83.788, -46.4021
9620.000000, 81.188, -62.1920
9750.000000, 76.601, -69.0912
9880.000000, 71.063, -41.5120
10000.000000, 69.290, 35.0679
10150.000000, 72.326, 60.0798
10300.000000, 74.411, 61.9724
10440.000000, 75.415, 67.2304
10600.000000, 76.854, 76.0424
10750.000000, 78.311, 81.8921
10900.000000, 79.534, 86.0980
11060.000000, 81.169, 95.5853
11200.000000, 84.155, 106.2857
11380.000000, 88.224, 100.4797
11500.000000, 89.809, 87.8927
11720.000000, 90.302, 64.0667
11800.000000, 89.988, 57.4574
12060.000000, 88.363, 44.2199
12200.000000, 87.436, 41.4546
12410.000000, 86.197, 40.7859
12500.000000, 85.688, 41.9876
12650.000000, 85.219, 47.9536
12800.000000, 85.778, 53.6559
13150.000000, 86.557, 47.6738
13200.000000, 86.579, 47.1078
13400.000000, 86.977, 42.6277
13600.000000, 86.688, 31.5453
13800.000000, 84.765, 21.4548
14000.000000, 81.982, 32.1571
14300.000000, 86.454, 93.9538
14500.000000, 90.721, 80.4711
14750.000000, 93.056, 46.2489
15000.000000, 91.983, 8.4403
15250.000000, 87.725, -22.4580
15500.000000, 81.401, -19.3964
15750.000000, 80.615, 93.5340
16000.000000, 83.881, 82.3977
16250.000000, 85.714, 65.7604
16500.000000, 85.699, 47.6647
16750.000000, 83.696, 35.3911
17000.000000, 80.811, 40.7133
17250.000000, 79.674, 54.4612
17500.000000, 79.904, 61.2030
17750.000000, 79.974, 59.9719
18000.000000, 78.763, 56.6046
18250.000000, 76.533, 68.8046
18500.000000, 77.165, 108.7304
18750.000000, 80.318, 122.4691
19000.000000, 83.086, 122.9027
19250.000000, 85.361, 120.4072
19500.000000, 87.117, 114.4937
19750.000000, 87.966, 104.5006
20000.000000, 87.639, 93.7066
20300.000000, 86.029, 84.4000
20600.000000, 83.739, 82.7277
20900.000000, 81.949, 89.6042
21200.000000, 81.232, 95.4811
21400.000000, 80.663, 95.0755
21800.000000, 77.576, 89.5593
22000.000000, 74.767, 89.4702
22400.000000, 66.752, 101.6749
22700.000000, 59.332, 113.8210
23000.000000, 51.191, 115.5910
23300.000000, 42.626, 162.4745
23600.000000, 35.237, 171.1310
24000.000000, 31.554, -55.6894
