* Measurement data measured by REW V5.31
* Source: Headset (DS by VECLAN.COM), MICROPHONE (Master Volume), L, volume: 0.720. Timing signal peak level -18.8 dBFS, measurement signal peak level -14.9 dBFS
* Format: 2M Log Swept Sine, 1 sweep at -7.9 dBFS using an acoustic timing reference
* Dated: Apr 24, 2024 6:32:43 PM
* REW Settings:
*  C-weighting compensation: Off
*  Target level: 85.0 dB
* Note: ; Delay -0.2195 ms (-75 mm, -2.96 in) using estimated IR delay relative to Acoustic reference played from HEADPHONE R with no timing offset
* Measurement: HEDDphone 2 R5
* Smoothing: 1/24 octave
* Frequency Step: 1/48 octave
* Start Frequency: 1.000 Hz
*
* Freq(Hz), SPL(dB), Phase(degrees)
1.000000, 61.018, -49.8535
1.015000, 60.768, -54.5914
1.030000, 60.554, -59.5563
1.044000, 60.387, -64.3237
1.060000, 60.242, -69.8286
1.075000, 60.152, -74.9417
1.090000, 60.112, -79.9181
1.106000, 60.127, -85.0223
1.120000, 60.194, -89.3243
1.138000, 60.348, -94.6201
1.150000, 60.491, -97.9836
1.172000, 60.828, -103.7651
1.180000, 60.972, -105.7407
1.206000, 61.509, -111.6502
1.220000, 61.837, -114.5078
1.241000, 62.367, -118.3787
1.250000, 62.607, -119.8901
1.265000, 63.018, -122.2207
1.280000, 63.441, -124.3266
1.315000, 64.447, -128.4357
1.320000, 64.591, -128.9375
1.340000, 65.159, -130.7497
1.360000, 65.707, -132.2676
1.380000, 66.227, -133.5545
1.400000, 66.707, -134.6082
1.430000, 67.329, -135.7647
1.450000, 67.667, -136.2800
1.475000, 67.998, -136.6995
1.500000, 68.258, -136.9870
1.525000, 68.464, -137.1949
1.550000, 68.625, -137.3242
1.575000, 68.746, -137.3914
1.600000, 68.835, -137.4077
1.625000, 68.897, -137.3284
1.650000, 68.938, -137.1477
1.675000, 68.964, -136.8602
1.700000, 68.982, -136.4608
1.725000, 68.997, -135.9449
1.750000, 69.016, -135.3084
1.775000, 69.045, -134.5653
1.800000, 69.089, -133.7300
1.825000, 69.153, -132.7726
1.850000, 69.228, -131.7165
1.875000, 69.301, -130.5924
1.900000, 69.370, -129.4125
1.925000, 69.434, -128.1806
1.950000, 69.496, -126.8991
1.975000, 69.557, -125.5888
2.000000, 69.620, -124.2700
2.030000, 69.699, -122.6393
2.060000, 69.786, -120.9681
2.090000, 69.885, -119.2687
2.120000, 69.997, -117.5545
2.140000, 70.081, -116.4102
2.180000, 70.277, -114.1532
2.200000, 70.390, -113.0471
2.240000, 70.644, -110.7969
2.270000, 70.856, -109.0750
2.300000, 71.086, -107.3541
2.330000, 71.329, -105.6641
2.360000, 71.584, -104.0318
2.400000, 71.937, -102.0307
2.430000, 72.209, -100.6547
2.470000, 72.577, -99.0020
2.500000, 72.853, -97.9100
2.540000, 73.218, -96.6541
2.580000, 73.580, -95.5973
2.620000, 73.950, -94.6453
2.650000, 74.234, -93.9559
2.690000, 74.620, -93.0929
2.720000, 74.912, -92.5042
2.760000, 75.301, -91.8151
2.800000, 75.687, -91.2928
2.850000, 76.158, -90.8428
2.900000, 76.609, -90.6211
2.950000, 77.037, -90.5945
3.000000, 77.449, -90.6909
3.040000, 77.769, -90.8151
3.070000, 78.004, -90.9300
3.110000, 78.309, -91.1167
3.150000, 78.606, -91.3469
3.200000, 78.963, -91.7353
3.250000, 79.305, -92.2259
3.300000, 79.631, -92.8092
3.350000, 79.942, -93.4670
3.400000, 80.236, -94.2039
3.450000, 80.515, -94.9808
3.500000, 80.780, -95.7725
3.550000, 81.032, -96.5725
3.600000, 81.270, -97.4070
3.650000, 81.496, -98.2668
3.700000, 81.708, -99.1575
3.750000, 81.906, -100.0876
3.820000, 82.161, -101.4602
3.870000, 82.328, -102.4452
3.950000, 82.572, -103.9736
4.000000, 82.712, -104.9095
4.060000, 82.866, -106.0216
4.120000, 83.004, -107.1507
4.180000, 83.126, -108.2982
4.250000, 83.250, -109.6423
4.310000, 83.343, -110.7346
4.370000, 83.426, -111.7557
4.440000, 83.508, -112.9052
4.500000, 83.564, -113.8689
4.550000, 83.602, -114.6559
4.620000, 83.643, -115.7380
4.680000, 83.671, -116.6034
4.750000, 83.698, -117.5076
4.820000, 83.717, -118.3314
4.870000, 83.725, -118.8802
4.940000, 83.728, -119.5925
5.000000, 83.728, -120.1626
5.080000, 83.728, -120.8435
5.150000, 83.729, -121.3406
5.220000, 83.731, -121.7680
5.300000, 83.733, -122.1734
5.380000, 83.738, -122.5129
5.450000, 83.750, -122.7911
5.520000, 83.769, -123.0328
5.600000, 83.801, -123.2609
5.700000, 83.852, -123.5021
5.800000, 83.914, -123.7527
5.900000, 83.988, -124.0719
6.000000, 84.075, -124.4254
6.080000, 84.151, -124.7469
6.150000, 84.218, -125.0576
6.220000, 84.284, -125.4257
6.300000, 84.359, -125.9043
6.400000, 84.451, -126.5751
6.500000, 84.538, -127.3124
6.600000, 84.614, -128.0955
6.700000, 84.676, -128.9491
6.800000, 84.727, -129.8494
6.900000, 84.765, -130.7591
7.000000, 84.790, -131.6453
7.100000, 84.800, -132.5335
7.200000, 84.797, -133.4034
7.300000, 84.786, -134.2253
7.400000, 84.766, -134.9775
7.500000, 84.738, -135.6830
7.620000, 84.698, -136.4559
7.750000, 84.656, -137.1860
7.880000, 84.616, -137.8144
8.000000, 84.582, -138.3331
8.120000, 84.557, -138.8245
8.250000, 84.538, -139.3242
8.380000, 84.525, -139.8235
8.500000, 84.515, -140.3228
8.620000, 84.508, -140.8502
8.750000, 84.495, -141.4440
8.850000, 84.478, -141.9214
9.000000, 84.440, -142.6591
9.120000, 84.396, -143.2207
9.250000, 84.332, -143.7682
9.380000, 84.252, -144.2374
9.500000, 84.171, -144.5515
9.620000, 84.084, -144.7061
9.750000, 83.987, -144.7004
9.880000, 83.896, -144.5143
10.000000, 83.822, -144.1598
10.150000, 83.752, -143.5629
10.300000, 83.728, -142.8705
10.440000, 83.754, -142.1893
10.600000, 83.836, -141.5368
10.750000, 83.963, -141.1762
10.900000, 84.125, -141.0922
11.060000, 84.308, -141.4166
11.200000, 84.468, -142.0547
11.380000, 84.646, -143.2231
11.500000, 84.736, -144.1987
11.720000, 84.835, -146.2117
11.800000, 84.847, -146.9723
12.060000, 84.805, -149.4269
12.200000, 84.736, -150.6302
12.410000, 84.586, -152.1285
12.500000, 84.511, -152.6174
12.650000, 84.377, -153.2133
12.800000, 84.247, -153.5527
13.150000, 84.029, -153.5352
13.200000, 84.012, -153.4838
13.400000, 83.986, -153.2218
13.600000, 84.013, -153.0246
13.800000, 84.079, -153.0207
14.000000, 84.157, -153.2678
14.300000, 84.252, -154.1325
14.500000, 84.277, -154.8705
14.750000, 84.255, -155.7792
15.000000, 84.180, -156.5037
15.250000, 84.078, -156.9456
15.500000, 83.967, -156.9914
15.750000, 83.869, -156.6449
16.000000, 83.800, -155.9731
16.250000, 83.771, -155.1101
16.500000, 83.787, -154.0943
16.750000, 83.850, -153.0064
17.000000, 83.966, -151.9433
17.250000, 84.135, -151.0517
17.500000, 84.350, -150.4414
17.750000, 84.590, -150.2400
18.000000, 84.831, -150.5196
18.250000, 85.041, -151.2968
18.500000, 85.190, -152.4573
18.750000, 85.257, -153.8343
19.000000, 85.232, -155.2307
19.250000, 85.122, -156.4447
19.500000, 84.944, -157.2637
19.750000, 84.729, -157.5585
20.000000, 84.517, -157.3005
20.299999, 84.316, -156.4400
20.600000, 84.208, -155.2776
20.900000, 84.188, -154.1968
21.200001, 84.220, -153.4663
21.400000, 84.251, -153.2015
21.799999, 84.300, -153.1017
22.000000, 84.313, -153.2128
22.400000, 84.317, -153.6988
22.700001, 84.296, -154.2391
23.000000, 84.246, -154.8898
23.299999, 84.158, -155.5705
23.600000, 84.035, -156.1137
24.000000, 83.856, -156.4106
24.299999, 83.757, -156.3523
24.700001, 83.720, -156.2647
25.000000, 83.746, -156.5333
25.400000, 83.761, -157.5497
25.799999, 83.648, -158.8661
26.200001, 83.388, -159.5654
26.500000, 83.165, -159.1953
26.900000, 82.994, -157.5259
27.200001, 83.035, -155.9929
27.600000, 83.271, -154.6744
28.000000, 83.526, -154.6006
28.500000, 83.649, -155.2924
29.000000, 83.595, -155.1164
29.500000, 83.630, -153.6938
30.000000, 83.863, -152.4483
30.400000, 84.063, -152.3012
30.700001, 84.144, -152.4951
31.100000, 84.148, -152.5928
31.500000, 84.105, -152.0574
32.000000, 84.139, -150.6692
32.500000, 84.306, -149.5247
33.000000, 84.472, -149.1306
33.500000, 84.552, -148.9813
34.000000, 84.606, -148.5466
34.500000, 84.716, -148.0436
35.000000, 84.860, -147.9484
35.500000, 84.961, -148.2494
36.000000, 85.000, -148.5098
36.500000, 85.035, -148.4847
37.000000, 85.110, -148.3313
37.500000, 85.217, -148.3164
38.200001, 85.365, -148.5664
38.700001, 85.458, -148.8029
39.500000, 85.591, -149.1119
40.000000, 85.674, -149.1949
40.599998, 85.796, -149.2478
41.200001, 85.945, -149.5259
41.799999, 86.063, -150.1855
42.500000, 86.101, -151.0193
43.099998, 86.088, -151.3402
43.700001, 86.107, -151.4085
44.400002, 86.170, -151.7813
45.000000, 86.176, -152.4485
45.500000, 86.119, -152.8983
46.200001, 86.023, -152.8432
46.799999, 86.030, -152.4188
47.500000, 86.128, -152.3720
48.200001, 86.186, -152.8252
48.700001, 86.190, -153.0002
49.400002, 86.234, -152.9024
50.000000, 86.333, -153.0010
50.799999, 86.418, -153.7974
51.500000, 86.370, -154.4588
52.200001, 86.268, -154.4362
53.000000, 86.203, -153.6446
53.799999, 86.249, -152.7708
54.500000, 86.328, -152.4243
55.200001, 86.378, -152.2661
56.000000, 86.445, -151.8559
57.000000, 86.649, -151.7398
58.000000, 86.793, -152.7278
59.000000, 86.816, -153.3687
60.000000, 86.893, -153.8031
60.799999, 86.916, -154.4746
61.500000, 86.875, -154.8317
62.200001, 86.839, -154.8093
63.000000, 86.840, -154.6302
64.000000, 86.877, -154.5287
65.000000, 86.918, -154.7381
66.000000, 86.910, -154.9167
67.000000, 86.914, -154.8582
68.000000, 86.916, -154.8195
69.000000, 86.921, -154.5234
70.000000, 86.963, -154.3272
71.000000, 86.982, -154.1960
72.000000, 87.035, -153.8741
73.000000, 87.135, -153.9368
74.000000, 87.185, -154.3177
75.000000, 87.201, -154.3620
76.199997, 87.260, -154.1310
77.500000, 87.346, -153.8776
78.800003, 87.413, -153.7791
80.000000, 87.435, -153.6311
81.199997, 87.467, -153.5352
82.500000, 87.499, -153.7750
83.800003, 87.525, -154.2391
85.000000, 87.552, -154.8012
86.199997, 87.575, -155.3843
87.500000, 87.594, -155.8523
88.500000, 87.615, -156.0972
90.000000, 87.628, -156.4913
91.199997, 87.611, -156.6953
92.500000, 87.573, -156.8676
93.800003, 87.520, -156.7701
95.000000, 87.520, -156.5029
96.199997, 87.555, -156.5652
97.500000, 87.544, -156.8034
98.800003, 87.522, -156.5761
100.000000, 87.548, -156.2967
101.500000, 87.572, -156.1789
103.000000, 87.561, -155.9583
104.400002, 87.558, -155.7235
106.000000, 87.529, -155.5017
107.500000, 87.554, -154.9874
109.000000, 87.651, -155.0798
110.599998, 87.711, -155.5578
112.000000, 87.755, -155.9609
113.800003, 87.769, -156.3112
115.000000, 87.768, -156.1924
117.199997, 87.805, -155.4651
118.000000, 87.825, -155.2242
120.599998, 87.875, -154.7633
122.000000, 87.900, -155.0018
124.099998, 87.891, -155.4319
125.000000, 87.898, -155.4507
126.500000, 87.931, -155.3473
128.000000, 87.970, -155.1357
131.500000, 88.098, -155.2144
132.000000, 88.103, -155.3802
134.000000, 88.076, -155.7471
136.000000, 88.068, -155.4641
138.000000, 88.081, -155.3931
140.000000, 88.069, -155.5136
143.000000, 88.120, -155.3286
145.000000, 88.145, -155.4749
147.500000, 88.023, -155.0605
150.000000, 88.119, -155.1345
152.500000, 88.307, -155.3242
155.000000, 88.322, -154.3274
157.500000, 88.199, -152.9069
160.000000, 88.374, -154.2441
162.500000, 88.557, -157.3260
165.000000, 88.693, -156.3950
167.500000, 88.678, -154.3644
170.000000, 88.511, -153.2909
172.500000, 88.405, -153.4892
175.000000, 88.421, -153.4415
177.500000, 88.469, -153.2301
180.000000, 88.474, -153.0502
182.500000, 88.499, -152.9831
185.000000, 88.547, -152.9558
187.500000, 88.578, -152.9360
190.000000, 88.597, -152.7294
192.500000, 88.614, -152.4117
195.000000, 88.619, -152.2879
197.500000, 88.613, -152.2890
200.000000, 88.633, -152.2780
203.000000, 88.683, -152.2436
206.000000, 88.718, -152.1245
209.000000, 88.753, -151.8836
212.000000, 88.791, -151.8104
214.000000, 88.797, -151.8795
218.000000, 88.769, -151.7825
220.000000, 88.759, -151.5849
224.000000, 88.790, -151.2496
227.000000, 88.850, -151.1817
230.000000, 88.897, -151.1053
233.000000, 88.918, -150.9202
236.000000, 88.930, -150.8046
240.000000, 88.957, -150.7848
243.000000, 88.982, -150.7651
247.000000, 89.017, -150.5905
250.000000, 89.047, -150.4547
254.000000, 89.085, -150.3944
258.000000, 89.126, -150.0703
262.000000, 89.142, -149.7981
265.000000, 89.135, -149.8424
269.000000, 89.135, -149.9613
272.000000, 89.145, -149.9765
276.000000, 89.168, -149.9934
280.000000, 89.210, -149.9220
285.000000, 89.221, -149.8107
290.000000, 89.219, -150.1380
295.000000, 89.270, -150.0916
300.000000, 89.263, -149.6858
304.000000, 89.228, -149.4970
307.000000, 89.219, -149.3906
311.000000, 89.201, -149.2878
315.000000, 89.183, -149.0985
320.000000, 89.224, -149.0399
325.000000, 89.273, -149.2228
330.000000, 89.254, -149.3015
335.000000, 89.221, -149.1521
340.000000, 89.176, -148.8872
345.000000, 89.121, -148.7034
350.000000, 89.071, -148.6370
355.000000, 89.010, -148.3973
360.000000, 88.924, -147.9741
365.000000, 88.817, -147.4360
370.000000, 88.699, -146.6378
375.000000, 88.611, -145.6124
382.000000, 88.594, -144.1849
387.000000, 88.622, -143.3195
395.000000, 88.660, -141.7863
400.000000, 88.697, -140.7292
406.000000, 88.813, -139.5135
412.000000, 88.942, -138.9914
418.000000, 89.034, -138.8742
425.000000, 89.133, -138.9251
431.000000, 89.179, -138.3388
437.000000, 89.184, -136.9935
444.000000, 89.184, -136.1729
450.000000, 89.211, -136.0070
455.000000, 89.244, -135.7811
462.000000, 89.375, -136.3378
468.000000, 89.557, -137.3135
475.000000, 89.684, -137.4962
482.000000, 89.598, -136.4167
487.000000, 89.499, -137.2215
494.000000, 89.231, -139.8033
500.000000, 88.928, -139.8591
508.000000, 88.787, -138.2684
515.000000, 88.768, -137.8901
522.000000, 88.668, -136.9347
530.000000, 88.557, -135.1300
538.000000, 88.482, -133.0038
545.000000, 88.478, -131.1680
552.000000, 88.541, -129.6239
560.000000, 88.618, -128.3170
570.000000, 88.684, -126.9572
580.000000, 88.741, -125.4935
590.000000, 88.853, -124.2823
600.000000, 88.966, -123.2764
608.000000, 89.048, -122.5718
615.000000, 89.112, -122.0288
622.000000, 89.151, -121.6289
630.000000, 89.128, -121.1994
640.000000, 88.962, -120.4548
650.000000, 88.817, -120.4316
660.000000, 89.002, -118.8894
670.000000, 89.202, -116.3402
680.000000, 89.365, -120.2618
690.000000, 89.766, -120.7442
700.000000, 89.915, -117.2975
710.000000, 89.879, -115.9901
720.000000, 89.877, -116.1685
730.000000, 89.830, -116.7145
740.000000, 89.685, -116.9002
750.000000, 89.518, -116.7272
762.000000, 89.333, -116.7876
775.000000, 88.963, -116.9408
788.000000, 88.407, -116.0588
800.000000, 87.803, -114.6177
812.000000, 86.957, -111.1129
825.000000, 86.243, -100.2019
838.000000, 86.781, -87.7047
850.000000, 87.613, -83.1509
862.000000, 88.240, -80.2445
875.000000, 89.007, -78.0376
885.000000, 89.535, -77.3262
900.000000, 90.059, -75.0222
912.000000, 90.685, -72.4274
925.000000, 91.539, -71.9979
938.000000, 92.160, -73.7720
950.000000, 92.447, -75.4908
962.000000, 92.615, -76.0141
975.000000, 92.959, -75.3203
988.000000, 93.539, -75.6253
1000.000000, 94.021, -77.9509
1015.000000, 94.303, -81.9982
1030.000000, 94.297, -85.3688
1044.000000, 94.145, -87.7013
1060.000000, 93.864, -90.0037
1075.000000, 93.480, -91.2888
1090.000000, 93.007, -90.9851
1106.000000, 92.572, -88.3428
1120.000000, 92.492, -84.7559
1138.000000, 92.848, -81.3984
1150.000000, 93.162, -80.7195
1172.000000, 93.580, -81.8143
1180.000000, 93.627, -82.5957
1206.000000, 93.502, -83.5592
1220.000000, 93.455, -83.1547
1241.000000, 93.395, -83.3393
1250.000000, 93.326, -83.2552
1265.000000, 93.244, -82.6865
1280.000000, 93.185, -82.3377
1315.000000, 92.753, -80.2148
1320.000000, 92.709, -79.4272
1340.000000, 92.756, -75.9268
1360.000000, 93.043, -74.1352
1380.000000, 93.210, -74.2457
1400.000000, 93.209, -74.5225
1430.000000, 92.933, -73.6991
1450.000000, 92.849, -71.1736
1475.000000, 93.007, -69.2785
1500.000000, 93.135, -68.3170
1525.000000, 93.222, -68.3860
1550.000000, 93.046, -68.3089
1575.000000, 92.849, -66.8827
1600.000000, 92.738, -65.5153
1625.000000, 92.614, -64.4136
1650.000000, 92.424, -63.5546
1675.000000, 92.091, -62.1037
1700.000000, 91.737, -59.5996
1725.000000, 91.447, -55.9934
1750.000000, 91.329, -51.6457
1775.000000, 91.399, -47.5890
1800.000000, 91.569, -44.3520
1825.000000, 91.743, -41.8499
1850.000000, 91.888, -39.7459
1875.000000, 91.979, -38.3132
1900.000000, 91.954, -36.6107
1925.000000, 91.936, -34.1922
1950.000000, 91.999, -31.4684
1975.000000, 92.127, -29.0928
2000.000000, 92.259, -27.0442
2030.000000, 92.441, -25.1239
2060.000000, 92.532, -23.8366
2090.000000, 92.539, -22.5253
2120.000000, 92.469, -21.2624
2140.000000, 92.382, -20.2530
2180.000000, 92.119, -17.8569
2200.000000, 91.902, -16.1914
2240.000000, 91.478, -10.6031
2270.000000, 91.391, -5.4553
2300.000000, 91.432, -0.7278
2330.000000, 91.481, 4.1853
2360.000000, 91.693, 10.1623
2400.000000, 92.415, 16.5453
2430.000000, 92.967, 18.9155
2470.000000, 93.456, 21.4143
2500.000000, 93.795, 23.4340
2540.000000, 94.185, 25.6804
2580.000000, 94.510, 27.8300
2620.000000, 94.740, 30.4674
2650.000000, 95.018, 33.4132
2690.000000, 95.619, 36.2460
2720.000000, 96.055, 37.1015
2760.000000, 96.456, 37.2864
2800.000000, 96.720, 37.9943
2850.000000, 97.045, 38.8089
2900.000000, 97.279, 39.7698
2950.000000, 97.429, 40.2052
3000.000000, 97.387, 42.2780
3040.000000, 97.633, 45.5020
3070.000000, 98.015, 46.8618
3110.000000, 98.489, 46.4393
3150.000000, 98.645, 44.7544
3200.000000, 98.457, 44.4257
3250.000000, 98.436, 46.2533
3300.000000, 98.656, 46.9893
3350.000000, 98.718, 45.9326
3400.000000, 98.447, 45.6509
3450.000000, 98.225, 47.0359
3500.000000, 98.134, 48.2372
3550.000000, 98.013, 49.3294
3600.000000, 97.931, 50.4955
3650.000000, 97.856, 50.7961
3700.000000, 97.601, 50.4576
3750.000000, 97.159, 50.9804
3820.000000, 96.515, 53.0015
3870.000000, 96.034, 54.6199
3950.000000, 94.989, 59.5442
4000.000000, 94.592, 64.2811
4060.000000, 94.062, 68.2892
4120.000000, 93.380, 75.4174
4180.000000, 93.195, 84.1173
4250.000000, 93.229, 92.0982
4310.000000, 93.463, 100.2654
4370.000000, 94.149, 105.8150
4440.000000, 94.680, 107.6825
4500.000000, 94.649, 109.1277
4550.000000, 94.567, 112.4461
4620.000000, 94.823, 117.5118
4680.000000, 95.251, 120.7331
4750.000000, 95.938, 121.6824
4820.000000, 96.157, 118.4088
4870.000000, 95.814, 116.4492
4940.000000, 95.126, 116.3641
5000.000000, 94.546, 117.0265
5080.000000, 93.558, 119.0806
5150.000000, 92.642, 123.2702
5220.000000, 91.868, 129.2133
5300.000000, 91.356, 137.2891
5380.000000, 91.224, 143.1899
5450.000000, 90.904, 146.5879
5520.000000, 90.410, 150.9290
5600.000000, 89.814, 156.9561
5700.000000, 89.307, 167.3034
5800.000000, 89.715, 175.8400
5900.000000, 89.867, 176.0190
6000.000000, 88.715, 176.6805
6080.000000, 87.589, -177.5540
6150.000000, 86.885, -172.0027
6220.000000, 86.151, -166.8864
6300.000000, 85.235, -159.1843
6400.000000, 84.370, -148.4705
6500.000000, 83.570, -138.1028
6600.000000, 82.816, -126.7259
6700.000000, 82.104, -115.0295
6800.000000, 81.401, -101.3515
6900.000000, 81.125, -83.7904
7000.000000, 81.935, -66.3617
7100.000000, 83.092, -56.5728
7200.000000, 83.763, -50.5420
7300.000000, 84.210, -44.4962
7400.000000, 84.515, -39.2372
7500.000000, 84.694, -34.0634
7620.000000, 84.667, -28.9708
7750.000000, 84.132, -21.5334
7880.000000, 83.527, -8.8517
8000.000000, 83.740, 6.6833
8120.000000, 84.837, 18.2300
8250.000000, 85.996, 24.8650
8380.000000, 87.034, 28.7968
8500.000000, 87.890, 29.9913
8620.000000, 88.692, 28.9465
8750.000000, 89.347, 23.6794
8850.000000, 89.431, 17.1119
9000.000000, 88.827, 5.6913
9120.000000, 88.102, -4.9730
9250.000000, 86.814, -19.9215
9380.000000, 84.597, -34.7078
9500.000000, 82.358, -45.9358
9620.000000, 80.667, -55.6968
9750.000000, 79.566, -64.4977
9880.000000, 79.042, -69.5345
10000.000000, 78.979, -69.4617
10150.000000, 79.658, -63.4860
10300.000000, 81.213, -55.6934
10440.000000, 82.839, -50.7457
10600.000000, 84.438, -46.6093
10750.000000, 85.924, -43.4930
10900.000000, 87.168, -44.1256
11060.000000, 87.255, -47.9517
11200.000000, 85.992, -46.6925
11380.000000, 84.025, -29.8530
11500.000000, 83.745, -12.3458
11720.000000, 85.412, 15.2820
11800.000000, 86.316, 22.4772
12060.000000, 89.076, 36.7499
12200.000000, 90.198, 41.5872
12410.000000, 91.864, 48.1522
12500.000000, 92.652, 49.8370
12650.000000, 93.889, 49.9410
12800.000000, 94.723, 46.5582
13150.000000, 93.679, 35.5126
13200.000000, 93.217, 34.9351
13400.000000, 90.967, 37.0822
13600.000000, 88.669, 45.9126
13800.000000, 86.738, 57.8672
14000.000000, 84.888, 71.8049
14300.000000, 82.619, 104.9641
14500.000000, 83.104, 128.2363
14750.000000, 84.876, 140.2471
15000.000000, 85.181, 134.3568
15250.000000, 82.396, 121.1394
15500.000000, 76.826, 103.0272
15750.000000, 73.364, -44.4644
16000.000000, 75.163, -45.3502
16250.000000, 77.073, -33.7640
16500.000000, 78.642, -19.0404
16750.000000, 80.259, -4.9546
17000.000000, 81.889, 4.8512
17250.000000, 82.814, 8.5073
17500.000000, 82.213, 10.7153
17750.000000, 80.219, 19.8591
18000.000000, 77.849, 42.2401
18250.000000, 77.155, 79.8468
18500.000000, 79.405, 114.9372
18750.000000, 82.101, 132.7446
19000.000000, 83.638, 142.5788
19250.000000, 84.195, 153.5815
19500.000000, 84.384, 166.4579
19750.000000, 84.092, 177.2573
20000.000000, 82.715, -172.5167
20300.000000, 79.863, -153.3347
20600.000000, 77.260, -124.5829
20900.000000, 76.136, -95.2263
21200.000000, 75.771, -73.5946
21400.000000, 75.404, -63.5079
21800.000000, 73.206, -50.9699
22000.000000, 70.776, -45.6308
22400.000000, 62.755, -27.6008
22700.000000, 54.745, -4.9258
23000.000000, 45.894, 17.2645
23300.000000, 37.510, 80.6546
23600.000000, 32.820, -153.1929
24000.000000, 31.411, 77.6660
