* Measurement data measured by REW V5.31
* Source: Headset (DS by VECLAN.COM), MICROPHONE (Master Volume), L, volume: 0.720. Timing signal peak level -17.8 dBFS, measurement signal peak level -18.2 dBFS
* Format: 2M Log Swept Sine, 1 sweep at -12.0 dBFS using an acoustic timing reference
* Dated: Apr 18, 2024 6:22:23 PM
* REW Settings:
*  C-weighting compensation: Off
*  Target level: 75.0 dB
* Note: ; Delay -0.1237 ms (-42 mm, -1.67 in) using estimated IR delay relative to Acoustic reference played from HEADPHONE R with no timing offset
* Measurement: Sony MDR-Z1R R1
* Smoothing: 1/24 octave
* Frequency Step: 1/48 octave
* Start Frequency: 1.000 Hz
*
* Freq(Hz), SPL(dB), Phase(degrees)
1.000000, 81.263, -96.1810
1.015000, 81.348, -94.2364
1.030000, 81.440, -92.3198
1.044000, 81.534, -90.5620
1.060000, 81.649, -88.5962
1.075000, 81.767, -86.8006
1.090000, 81.894, -85.0539
1.106000, 82.042, -83.2370
1.120000, 82.185, -81.6687
1.138000, 82.390, -79.6735
1.150000, 82.539, -78.3598
1.172000, 82.833, -76.0031
1.180000, 82.946, -75.1700
1.206000, 83.334, -72.5373
1.220000, 83.553, -71.1732
1.241000, 83.891, -69.2055
1.250000, 84.040, -68.3928
1.265000, 84.289, -67.0812
1.280000, 84.541, -65.8251
1.315000, 85.128, -63.1186
1.320000, 85.211, -62.7582
1.340000, 85.539, -61.3832
1.360000, 85.858, -60.1139
1.380000, 86.164, -58.9893
1.400000, 86.454, -57.9851
1.430000, 86.850, -56.6733
1.450000, 87.084, -55.9232
1.475000, 87.341, -55.0951
1.500000, 87.568, -54.3207
1.525000, 87.770, -53.5752
1.550000, 87.950, -52.8654
1.575000, 88.111, -52.2214
1.600000, 88.256, -51.6675
1.625000, 88.388, -51.1704
1.650000, 88.508, -50.7345
1.675000, 88.621, -50.3635
1.700000, 88.728, -50.0601
1.725000, 88.832, -49.8267
1.750000, 88.935, -49.6651
1.775000, 89.041, -49.5938
1.800000, 89.152, -49.6300
1.825000, 89.270, -49.7365
1.850000, 89.392, -49.8959
1.875000, 89.514, -50.0815
1.900000, 89.634, -50.2831
1.925000, 89.753, -50.4989
1.950000, 89.870, -50.7283
1.975000, 89.984, -50.9887
2.000000, 90.096, -51.2969
2.030000, 90.228, -51.6870
2.060000, 90.357, -52.1035
2.090000, 90.483, -52.5495
2.120000, 90.605, -53.0286
2.140000, 90.685, -53.3682
2.180000, 90.840, -54.1222
2.200000, 90.915, -54.5469
2.240000, 91.060, -55.4444
2.270000, 91.165, -56.1479
2.300000, 91.267, -56.8679
2.330000, 91.365, -57.5978
2.360000, 91.460, -58.3335
2.400000, 91.581, -59.3656
2.430000, 91.669, -60.1464
2.470000, 91.782, -61.1867
2.500000, 91.863, -61.9675
2.540000, 91.968, -63.0135
2.580000, 92.068, -64.0982
2.620000, 92.163, -65.2614
2.650000, 92.232, -66.1569
2.690000, 92.318, -67.3677
2.720000, 92.380, -68.2787
2.760000, 92.457, -69.4839
2.800000, 92.531, -70.7097
2.850000, 92.616, -72.2086
2.900000, 92.694, -73.6573
2.950000, 92.765, -75.0769
3.000000, 92.828, -76.5556
3.040000, 92.874, -77.7729
3.070000, 92.904, -78.6888
3.110000, 92.942, -79.9006
3.150000, 92.975, -81.0884
3.200000, 93.011, -82.5501
3.250000, 93.042, -83.9481
3.300000, 93.068, -85.2664
3.350000, 93.088, -86.5501
3.400000, 93.102, -87.8669
3.450000, 93.109, -89.1843
3.500000, 93.112, -90.4646
3.550000, 93.111, -91.6825
3.600000, 93.107, -92.8420
3.650000, 93.101, -93.9128
3.700000, 93.092, -94.8994
3.750000, 93.077, -95.8363
3.820000, 93.050, -97.1117
3.870000, 93.029, -97.9671
3.950000, 92.998, -99.1898
4.000000, 92.983, -99.8632
4.060000, 92.970, -100.5572
4.120000, 92.959, -101.1298
4.180000, 92.950, -101.6104
4.250000, 92.946, -102.0990
4.310000, 92.954, -102.4377
4.370000, 92.974, -102.7106
4.440000, 93.017, -102.9558
4.500000, 93.066, -103.0605
4.550000, 93.115, -103.0895
4.620000, 93.199, -103.1125
4.680000, 93.284, -103.1336
4.750000, 93.400, -103.1821
4.820000, 93.537, -103.2565
4.870000, 93.648, -103.2951
4.940000, 93.817, -103.3428
5.000000, 93.973, -103.4270
5.080000, 94.188, -103.6433
5.150000, 94.382, -103.9351
5.220000, 94.584, -104.3126
5.300000, 94.824, -104.8065
5.380000, 95.067, -105.3736
5.450000, 95.275, -105.9634
5.520000, 95.476, -106.6301
5.600000, 95.701, -107.4873
5.700000, 95.974, -108.6602
5.800000, 96.231, -109.8919
5.900000, 96.465, -111.1906
6.000000, 96.679, -112.5670
6.080000, 96.835, -113.7044
6.150000, 96.961, -114.6797
6.220000, 97.076, -115.6416
6.300000, 97.195, -116.7246
6.400000, 97.324, -118.0754
6.500000, 97.436, -119.3864
6.600000, 97.532, -120.5967
6.700000, 97.612, -121.7287
6.800000, 97.679, -122.7911
6.900000, 97.736, -123.7701
7.000000, 97.788, -124.6349
7.100000, 97.835, -125.4041
7.200000, 97.878, -126.0887
7.300000, 97.921, -126.7035
7.400000, 97.967, -127.2399
7.500000, 98.015, -127.7128
7.620000, 98.076, -128.2160
7.750000, 98.148, -128.7156
7.880000, 98.227, -129.1765
8.000000, 98.302, -129.5792
8.120000, 98.379, -129.9904
8.250000, 98.462, -130.4424
8.380000, 98.543, -130.8929
8.500000, 98.613, -131.3159
8.620000, 98.678, -131.7397
8.750000, 98.745, -132.1885
8.850000, 98.792, -132.5206
9.000000, 98.858, -132.9952
9.120000, 98.909, -133.3626
9.250000, 98.963, -133.7470
9.380000, 99.017, -134.1202
9.500000, 99.068, -134.4792
9.620000, 99.119, -134.8546
9.750000, 99.174, -135.2876
9.880000, 99.219, -135.7733
10.000000, 99.247, -136.2717
10.150000, 99.263, -136.9935
10.300000, 99.255, -137.7693
10.440000, 99.222, -138.5417
10.600000, 99.156, -139.4227
10.750000, 99.064, -140.2080
10.900000, 98.944, -140.9160
11.060000, 98.789, -141.5162
11.200000, 98.633, -141.8987
11.380000, 98.420, -142.0679
11.500000, 98.276, -141.9450
11.720000, 98.038, -141.2676
11.800000, 97.970, -140.8858
12.060000, 97.839, -139.3413
12.200000, 97.839, -138.5021
12.410000, 97.926, -137.3907
12.500000, 97.988, -137.0451
12.650000, 98.119, -136.6775
12.800000, 98.265, -136.6038
13.150000, 98.597, -137.6494
13.200000, 98.636, -137.9193
13.400000, 98.766, -139.2153
13.600000, 98.840, -140.7186
13.800000, 98.853, -142.3015
14.000000, 98.812, -143.8201
14.300000, 98.671, -145.8373
14.500000, 98.544, -146.8413
14.750000, 98.382, -147.6696
15.000000, 98.247, -148.0586
15.250000, 98.169, -148.1895
15.500000, 98.157, -148.1865
15.750000, 98.204, -148.2225
16.000000, 98.297, -148.4463
16.250000, 98.415, -148.9787
16.500000, 98.534, -149.7807
16.750000, 98.634, -150.7994
17.000000, 98.702, -151.9344
17.250000, 98.733, -153.0902
17.500000, 98.727, -154.1099
17.750000, 98.697, -154.8806
18.000000, 98.662, -155.3519
18.250000, 98.647, -155.5573
18.500000, 98.670, -155.5724
18.750000, 98.741, -155.5459
19.000000, 98.855, -155.6398
19.250000, 98.995, -156.0139
19.500000, 99.138, -156.6997
19.750000, 99.258, -157.6884
20.000000, 99.335, -158.9149
20.299999, 99.354, -160.5860
20.600000, 99.283, -162.2447
20.900000, 99.124, -163.6707
21.200001, 98.891, -164.6625
21.400000, 98.710, -164.9816
21.799999, 98.349, -164.6501
22.000000, 98.205, -164.0385
22.400000, 98.069, -162.4002
22.700001, 98.114, -161.3633
23.000000, 98.243, -160.9826
23.299999, 98.382, -161.4444
23.600000, 98.458, -162.5907
24.000000, 98.394, -164.5463
24.299999, 98.228, -165.8090
24.700001, 97.944, -166.6469
25.000000, 97.772, -166.6602
25.400000, 97.678, -166.5000
25.799999, 97.684, -166.8719
26.200001, 97.643, -167.8489
26.500000, 97.526, -168.4924
26.900000, 97.309, -168.3668
27.200001, 97.215, -167.2866
27.600000, 97.362, -165.2107
28.000000, 97.830, -164.0060
28.500000, 98.536, -165.2642
29.000000, 98.985, -168.7520
29.500000, 99.071, -172.4297
30.000000, 98.946, -174.8608
30.400000, 98.837, -175.8436
30.700001, 98.782, -176.2688
31.100000, 98.726, -176.6960
31.500000, 98.653, -176.9947
32.000000, 98.541, -176.8998
32.500000, 98.487, -176.3219
33.000000, 98.529, -175.8914
33.500000, 98.582, -176.1225
34.000000, 98.546, -176.7041
34.500000, 98.437, -177.0033
35.000000, 98.359, -176.8608
35.500000, 98.376, -176.8084
36.000000, 98.441, -177.3707
36.500000, 98.470, -178.5240
37.000000, 98.437, -179.8865
37.500000, 98.370, 178.7936
38.200001, 98.262, 176.9934
38.700001, 98.156, 175.7247
39.500000, 97.920, 174.2142
40.000000, 97.777, 173.7726
40.599998, 97.651, 173.5222
41.200001, 97.546, 173.3394
41.799999, 97.423, 173.3304
42.500000, 97.289, 173.8314
43.099998, 97.244, 174.5030
43.700001, 97.257, 174.8945
44.400002, 97.248, 174.7654
45.000000, 97.162, 174.5727
45.500000, 97.058, 174.6865
46.200001, 96.951, 175.2410
46.799999, 96.915, 175.6921
47.500000, 96.890, 175.9957
48.200001, 96.873, 176.1818
48.700001, 96.870, 176.1785
49.400002, 96.839, 175.9458
50.000000, 96.769, 175.7574
50.799999, 96.651, 175.7252
51.500000, 96.527, 175.8464
52.200001, 96.387, 176.4398
53.000000, 96.341, 177.5513
53.799999, 96.381, 177.9503
54.500000, 96.328, 178.1982
55.200001, 96.306, 179.3823
56.000000, 96.509, -179.2312
57.000000, 96.807, -178.9288
58.000000, 97.093, -178.2629
59.000000, 97.559, -178.6188
60.000000, 97.826, 179.4748
60.799999, 97.931, 178.1068
61.500000, 98.015, 176.4512
62.200001, 97.949, 174.2419
63.000000, 97.636, 172.6012
64.000000, 97.385, 172.7663
65.000000, 97.372, 171.8827
66.000000, 97.180, 171.0202
67.000000, 97.138, 171.7946
68.000000, 97.223, 171.9726
69.000000, 97.161, 172.5184
70.000000, 97.095, 174.7674
71.000000, 97.266, 177.7698
72.000000, 97.567, 178.4571
73.000000, 97.496, 177.3421
74.000000, 97.210, 177.6563
75.000000, 97.137, 177.6488
76.199997, 96.910, 175.1060
77.500000, 96.430, 173.7615
78.800003, 96.349, 174.4305
80.000000, 96.604, 173.7825
81.199997, 96.719, 172.4933
82.500000, 96.816, 172.4900
83.800003, 97.043, 171.9035
85.000000, 97.062, 170.1224
86.199997, 96.918, 169.1851
87.500000, 96.851, 168.6215
88.500000, 96.802, 167.7387
90.000000, 96.570, 166.6301
91.199997, 96.376, 166.3882
92.500000, 96.167, 165.7976
93.800003, 95.934, 165.2614
95.000000, 95.776, 164.9916
96.199997, 95.736, 164.9158
97.500000, 95.738, 164.7769
98.800003, 95.715, 165.6526
100.000000, 95.711, 167.2822
101.500000, 95.740, 170.3009
103.000000, 95.857, 172.5645
104.400002, 95.931, 173.3860
106.000000, 95.999, 172.9525
107.500000, 96.006, 171.5573
109.000000, 95.960, 170.5993
110.599998, 96.088, 170.9230
112.000000, 96.343, 170.0562
113.800003, 96.499, 167.6483
115.000000, 96.496, 166.0887
117.199997, 96.494, 164.2647
118.000000, 96.511, 163.7850
120.599998, 96.497, 162.8637
122.000000, 96.414, 162.8665
124.099998, 96.201, 162.6522
125.000000, 96.094, 162.4525
126.500000, 95.930, 161.7519
128.000000, 95.764, 160.9236
131.500000, 95.524, 160.1669
132.000000, 95.492, 160.1006
134.000000, 95.348, 159.8410
136.000000, 95.202, 159.4006
138.000000, 95.064, 158.8910
140.000000, 94.966, 158.8806
143.000000, 94.813, 158.3427
145.000000, 94.654, 157.9370
147.500000, 94.496, 157.8055
150.000000, 94.366, 158.0677
152.500000, 94.192, 158.5328
155.000000, 94.017, 158.6873
157.500000, 93.849, 158.7544
160.000000, 93.687, 159.2289
162.500000, 93.504, 159.7747
165.000000, 93.325, 160.1708
167.500000, 93.199, 160.4084
170.000000, 93.069, 160.6488
172.500000, 92.919, 161.2321
175.000000, 92.808, 161.8499
177.500000, 92.719, 162.4058
180.000000, 92.621, 163.1207
182.500000, 92.491, 163.9119
185.000000, 92.345, 164.6240
187.500000, 92.214, 165.2549
190.000000, 92.119, 166.0662
192.500000, 92.059, 167.1519
195.000000, 92.009, 168.0317
197.500000, 91.927, 168.5257
200.000000, 91.829, 169.0725
203.000000, 91.782, 170.3801
206.000000, 91.807, 171.6207
209.000000, 91.727, 172.1427
212.000000, 91.553, 172.9523
214.000000, 91.461, 173.6238
218.000000, 91.358, 175.0710
220.000000, 91.334, 175.7235
224.000000, 91.311, 176.5428
227.000000, 91.311, 176.9143
230.000000, 91.298, 177.6028
233.000000, 91.278, 178.6215
236.000000, 91.260, 179.6552
240.000000, 91.246, -179.0536
243.000000, 91.244, -178.1557
247.000000, 91.235, -176.9907
250.000000, 91.207, -176.0041
254.000000, 91.230, -174.7631
258.000000, 91.306, -174.0385
262.000000, 91.347, -173.1805
265.000000, 91.350, -172.6216
269.000000, 91.341, -171.9204
272.000000, 91.347, -171.3295
276.000000, 91.400, -170.5187
280.000000, 91.422, -169.7443
285.000000, 91.453, -167.8761
290.000000, 91.475, -166.2060
295.000000, 91.418, -165.3184
300.000000, 91.470, -165.1857
304.000000, 91.538, -164.7266
307.000000, 91.599, -164.3272
311.000000, 91.638, -163.5460
315.000000, 91.641, -162.6958
320.000000, 91.675, -161.4913
325.000000, 91.760, -160.2579
330.000000, 91.923, -158.9515
335.000000, 92.097, -157.8691
340.000000, 92.266, -157.7673
345.000000, 92.392, -157.7674
350.000000, 92.407, -157.6395
355.000000, 92.404, -157.2389
360.000000, 92.436, -156.5048
365.000000, 92.477, -155.4013
370.000000, 92.547, -154.3514
375.000000, 92.690, -153.7982
382.000000, 92.956, -153.6396
387.000000, 93.090, -153.4294
395.000000, 93.188, -153.1913
400.000000, 93.218, -153.1334
406.000000, 93.259, -153.0696
412.000000, 93.306, -153.0162
418.000000, 93.362, -152.8319
425.000000, 93.422, -152.4440
431.000000, 93.468, -152.0529
437.000000, 93.509, -151.5187
444.000000, 93.562, -151.2929
450.000000, 93.620, -151.1674
455.000000, 93.663, -151.0221
462.000000, 93.707, -150.8237
468.000000, 93.750, -150.6784
475.000000, 93.791, -150.4542
482.000000, 93.814, -150.2193
487.000000, 93.822, -150.1227
494.000000, 93.857, -150.0936
500.000000, 93.900, -150.1465
508.000000, 93.909, -150.0854
515.000000, 93.880, -149.7865
522.000000, 93.835, -149.2801
530.000000, 93.784, -148.5649
538.000000, 93.757, -147.7011
545.000000, 93.766, -146.8630
552.000000, 93.809, -145.9886
560.000000, 93.885, -144.9867
570.000000, 93.997, -143.8439
580.000000, 94.112, -143.0248
590.000000, 94.236, -142.4618
600.000000, 94.391, -141.8984
608.000000, 94.510, -141.4551
615.000000, 94.600, -141.2792
622.000000, 94.676, -141.1816
630.000000, 94.749, -141.0930
640.000000, 94.836, -141.0102
650.000000, 94.904, -140.9581
660.000000, 94.951, -140.8949
670.000000, 95.002, -140.7350
680.000000, 95.055, -140.6765
690.000000, 95.100, -140.7170
700.000000, 95.148, -140.6528
710.000000, 95.181, -140.5600
720.000000, 95.203, -140.3702
730.000000, 95.229, -140.2509
740.000000, 95.251, -140.1600
750.000000, 95.259, -140.0193
762.000000, 95.258, -139.7380
775.000000, 95.265, -139.4362
788.000000, 95.256, -139.0197
800.000000, 95.255, -138.7223
812.000000, 95.258, -138.4141
825.000000, 95.253, -137.9980
838.000000, 95.244, -137.5943
850.000000, 95.230, -137.1633
862.000000, 95.214, -136.7398
875.000000, 95.200, -136.2729
885.000000, 95.192, -135.8976
900.000000, 95.188, -135.3376
912.000000, 95.193, -134.8883
925.000000, 95.194, -134.5277
938.000000, 95.164, -134.2233
950.000000, 95.115, -133.8091
962.000000, 95.063, -133.2473
975.000000, 95.015, -132.5054
988.000000, 94.988, -131.7353
1000.000000, 94.979, -131.0863
1015.000000, 94.965, -130.3446
1030.000000, 94.932, -129.5853
1044.000000, 94.891, -128.7549
1060.000000, 94.846, -127.7279
1075.000000, 94.822, -126.7655
1090.000000, 94.816, -125.8354
1106.000000, 94.824, -124.8141
1120.000000, 94.836, -123.8642
1138.000000, 94.861, -122.6056
1150.000000, 94.882, -121.7621
1172.000000, 94.915, -120.2195
1180.000000, 94.925, -119.6641
1206.000000, 94.969, -117.8077
1220.000000, 95.005, -116.7845
1241.000000, 95.090, -115.2384
1250.000000, 95.135, -114.5885
1265.000000, 95.218, -113.5623
1280.000000, 95.300, -112.5811
1315.000000, 95.471, -110.3604
1320.000000, 95.493, -110.0483
1340.000000, 95.568, -108.7782
1360.000000, 95.623, -107.4296
1380.000000, 95.691, -106.0528
1400.000000, 95.796, -104.6519
1430.000000, 95.992, -102.6303
1450.000000, 96.127, -101.2804
1475.000000, 96.294, -99.6276
1500.000000, 96.475, -98.1049
1525.000000, 96.667, -96.6658
1550.000000, 96.865, -95.2642
1575.000000, 97.071, -93.9091
1600.000000, 97.284, -92.4685
1625.000000, 97.515, -91.0546
1650.000000, 97.769, -89.7382
1675.000000, 98.046, -88.6045
1700.000000, 98.342, -87.7084
1725.000000, 98.641, -87.0224
1750.000000, 98.933, -86.4410
1775.000000, 99.221, -86.0071
1800.000000, 99.507, -85.6501
1825.000000, 99.797, -85.2817
1850.000000, 100.107, -85.1382
1875.000000, 100.435, -85.2974
1900.000000, 100.768, -85.7491
1925.000000, 101.089, -86.5528
1950.000000, 101.380, -87.5822
1975.000000, 101.633, -88.7992
2000.000000, 101.852, -90.2200
2030.000000, 102.067, -92.1440
2060.000000, 102.236, -94.1804
2090.000000, 102.372, -96.3463
2120.000000, 102.467, -98.7204
2140.000000, 102.497, -100.4567
2180.000000, 102.445, -104.0911
2200.000000, 102.355, -105.8496
2240.000000, 102.081, -109.0421
2270.000000, 101.820, -111.1742
2300.000000, 101.509, -113.0842
2330.000000, 101.148, -114.7328
2360.000000, 100.764, -116.1008
2400.000000, 100.234, -117.6796
2430.000000, 99.804, -118.7190
2470.000000, 99.168, -119.7714
2500.000000, 98.637, -120.2128
2540.000000, 97.862, -120.4122
2580.000000, 97.013, -120.0964
2620.000000, 96.093, -119.0404
2650.000000, 95.360, -117.5679
2690.000000, 94.322, -114.3808
2720.000000, 93.510, -110.8331
2760.000000, 92.454, -104.0796
2800.000000, 91.592, -94.8057
2850.000000, 91.084, -80.4648
2900.000000, 91.460, -65.0438
2950.000000, 92.779, -52.0712
3000.000000, 94.633, -45.1205
3040.000000, 96.101, -44.3505
3070.000000, 97.028, -46.0582
3110.000000, 97.921, -50.3112
3150.000000, 98.383, -55.4395
3200.000000, 98.456, -61.4149
3250.000000, 98.178, -65.9418
3300.000000, 97.750, -68.9623
3350.000000, 97.273, -71.0284
3400.000000, 96.763, -72.6320
3450.000000, 96.169, -74.3078
3500.000000, 95.370, -76.0848
3550.000000, 94.231, -77.0837
3600.000000, 92.718, -75.3012
3650.000000, 91.127, -67.8566
3700.000000, 90.148, -55.2716
3750.000000, 90.074, -43.1703
3820.000000, 90.600, -32.2590
3870.000000, 90.943, -27.3193
3950.000000, 91.295, -20.6498
4000.000000, 91.476, -16.6210
4060.000000, 91.678, -11.9823
4120.000000, 91.870, -7.5419
4180.000000, 92.057, -3.2912
4250.000000, 92.283, 1.5057
4310.000000, 92.490, 5.6049
4370.000000, 92.717, 9.6433
4440.000000, 93.025, 14.1428
4500.000000, 93.320, 17.6297
4550.000000, 93.579, 20.3148
4620.000000, 93.955, 23.6056
4680.000000, 94.276, 25.9594
4750.000000, 94.623, 28.1248
4820.000000, 94.914, 29.7841
4870.000000, 95.072, 30.7603
4940.000000, 95.223, 31.9875
5000.000000, 95.289, 32.9751
5080.000000, 95.286, 34.4780
5150.000000, 95.228, 36.1377
5220.000000, 95.151, 38.1348
5300.000000, 95.057, 40.5295
5380.000000, 94.937, 42.8638
5450.000000, 94.784, 44.8812
5520.000000, 94.579, 47.0810
5600.000000, 94.282, 50.1351
5700.000000, 93.855, 55.2154
5800.000000, 93.468, 61.8897
5900.000000, 93.231, 69.9703
6000.000000, 93.249, 78.5781
6080.000000, 93.451, 85.3605
6150.000000, 93.739, 91.0628
6220.000000, 94.118, 96.4843
6300.000000, 94.662, 102.3840
6400.000000, 95.529, 108.9259
6500.000000, 96.601, 113.7851
6600.000000, 97.745, 116.1029
6700.000000, 98.762, 115.6690
6800.000000, 99.492, 113.0250
6900.000000, 99.848, 109.2301
7000.000000, 99.791, 105.6128
7100.000000, 99.387, 103.3422
7200.000000, 98.800, 103.0512
7300.000000, 98.176, 104.7719
7400.000000, 97.588, 107.9188
7500.000000, 97.060, 111.9897
7620.000000, 96.507, 117.8152
7750.000000, 96.019, 125.9475
7880.000000, 95.762, 136.7837
8000.000000, 96.027, 148.2347
8120.000000, 96.864, 158.8425
8250.000000, 98.275, 167.5907
8380.000000, 100.068, 172.7487
8500.000000, 101.991, 173.4576
8620.000000, 103.955, 168.9509
8750.000000, 105.585, 157.1563
8850.000000, 106.067, 144.4128
9000.000000, 105.222, 124.9143
9120.000000, 103.524, 112.8916
9250.000000, 101.249, 104.0218
9380.000000, 98.843, 97.4536
9500.000000, 96.483, 90.8819
9620.000000, 93.726, 81.4358
9750.000000, 90.170, 63.4413
9880.000000, 88.349, -81.8415
10000.000000, 89.856, -122.8461
10150.000000, 91.260, -140.4538
10300.000000, 91.214, -148.0075
10440.000000, 90.773, -147.0623
10600.000000, 90.703, -142.5669
10750.000000, 90.652, -140.2550
10900.000000, 90.155, -137.5604
11060.000000, 89.530, -132.3890
11200.000000, 88.874, -127.5325
11380.000000, 87.886, -114.9982
11500.000000, 88.109, -102.4100
11720.000000, 89.959, -92.8705
11800.000000, 90.351, -93.5171
12060.000000, 90.136, -96.8801
12200.000000, 89.481, -96.5275
12410.000000, 88.361, -92.9468
12500.000000, 87.913, -90.5435
12650.000000, 87.268, -85.6487
12800.000000, 87.019, -79.3222
13150.000000, 87.768, -82.0695
13200.000000, 87.647, -84.2270
13400.000000, 86.570, -89.7645
13600.000000, 86.495, -98.1004
13800.000000, 86.040, -122.1914
14000.000000, 84.511, -155.6196
14300.000000, 82.405, 159.8493
14500.000000, 84.689, 134.4592
14750.000000, 85.188, 87.3394
15000.000000, 81.801, 47.2937
15250.000000, 75.216, 50.8624
15500.000000, 70.981, 164.1467
15750.000000, 74.132, 177.0651
16000.000000, 76.609, 175.0212
16250.000000, 77.160, 170.0372
16500.000000, 75.674, 172.0670
16750.000000, 74.242, -165.8631
17000.000000, 74.880, -147.4964
17250.000000, 74.689, -135.6170
17500.000000, 75.234, -100.0785
17750.000000, 78.408, -77.9328
18000.000000, 80.526, -76.3506
18250.000000, 81.139, -75.6227
18500.000000, 81.519, -69.8646
18750.000000, 82.502, -62.0713
19000.000000, 84.136, -56.3987
19250.000000, 85.221, -58.2378
19500.000000, 84.606, -63.1212
19750.000000, 82.360, -62.3388
20000.000000, 79.499, -52.1963
20300.000000, 76.629, -26.8164
20600.000000, 76.371, 5.5810
20900.000000, 76.122, 15.6420
21200.000000, 74.338, 25.4665
21400.000000, 72.937, 34.7909
21800.000000, 69.546, 61.3691
22000.000000, 67.768, 78.6903
22400.000000, 62.181, 100.0069
22700.000000, 55.997, 107.7216
23000.000000, 49.236, 110.7346
23300.000000, 44.393, 156.9166
23600.000000, 42.669, 108.7739
24000.000000, 42.006, -99.0764
