* Measurement data measured by REW V5.31.3
* Source: Headset (DS by VECLAN.COM), MICROPHONE (Master Volume), L, volume: 0.720. Timing signal peak level -13.7 dBFS, measurement signal peak level -11.0 dBFS
* Format: 2M Log Swept Sine, 1 sweep at -14.4 dBFS using an acoustic timing reference
* Dated: Nov 6, 2024 10:30:52 PM
* REW Settings:
*  C-weighting compensation: Off
*  Target level: 85.0 dB
* Note: ; Delay -0.0705 ms (-24 mm, -0.95 in) using estimated IR delay relative to Acoustic reference played from HEADPHONE L with no timing offset Clock adjustment: -84.8 ppm
* Measurement: Jazz ANC L3
* Smoothing: 1/24 octave
* Frequency Step: 1/48 octave
* Start Frequency: 1.000 Hz
*
* Freq(Hz), SPL(dB), Phase(degrees)
1.000000, 37.274, 163.9691
1.015000, 37.746, 161.4274
1.030000, 38.212, 159.0661
1.044000, 38.640, 156.9884
1.060000, 39.115, 154.7302
1.075000, 39.546, 152.7017
1.090000, 39.959, 150.7458
1.106000, 40.388, 148.7567
1.120000, 40.765, 147.1403
1.138000, 41.260, 145.2438
1.150000, 41.597, 144.0796
1.172000, 42.226, 142.1174
1.180000, 42.459, 141.4508
1.206000, 43.223, 139.4224
1.220000, 43.639, 138.4023
1.241000, 44.267, 136.9445
1.250000, 44.536, 136.3416
1.265000, 44.986, 135.3603
1.280000, 45.435, 134.4030
1.315000, 46.472, 132.2344
1.320000, 46.618, 131.9298
1.340000, 47.199, 130.7189
1.360000, 47.768, 129.5151
1.380000, 48.323, 128.3126
1.400000, 48.862, 127.1066
1.430000, 49.634, 125.2832
1.450000, 50.121, 124.0560
1.475000, 50.698, 122.5285
1.500000, 51.245, 121.0623
1.525000, 51.767, 119.6740
1.550000, 52.267, 118.3521
1.575000, 52.746, 117.0828
1.600000, 53.206, 115.8539
1.625000, 53.650, 114.6544
1.650000, 54.080, 113.4748
1.675000, 54.497, 112.3064
1.700000, 54.903, 111.1421
1.725000, 55.302, 109.9753
1.750000, 55.693, 108.8006
1.775000, 56.081, 107.6130
1.800000, 56.466, 106.4089
1.825000, 56.850, 105.1888
1.850000, 57.231, 103.9672
1.875000, 57.603, 102.7658
1.900000, 57.965, 101.5908
1.925000, 58.319, 100.4406
1.950000, 58.665, 99.3124
1.975000, 59.003, 98.2031
2.000000, 59.333, 97.1096
2.030000, 59.721, 95.8136
2.060000, 60.101, 94.5303
2.090000, 60.473, 93.2546
2.120000, 60.838, 91.9813
2.140000, 61.078, 91.1315
2.180000, 61.553, 89.4248
2.200000, 61.787, 88.5681
2.240000, 62.245, 86.8622
2.270000, 62.580, 85.5989
2.300000, 62.907, 84.3524
2.330000, 63.226, 83.1230
2.360000, 63.539, 81.9105
2.400000, 63.946, 80.3182
2.430000, 64.244, 79.1405
2.470000, 64.634, 77.5887
2.500000, 64.920, 76.4362
2.540000, 65.296, 74.9100
2.580000, 65.664, 73.3917
2.620000, 66.022, 71.8810
2.650000, 66.284, 70.7562
2.690000, 66.624, 69.2721
2.720000, 66.874, 68.1731
2.760000, 67.199, 66.7291
2.800000, 67.516, 65.3109
2.850000, 67.903, 63.5751
2.900000, 68.280, 61.8787
2.950000, 68.647, 60.2131
3.000000, 69.003, 58.5637
3.040000, 69.279, 57.2566
3.070000, 69.481, 56.2869
3.110000, 69.744, 55.0119
3.150000, 70.002, 53.7609
3.200000, 70.316, 52.2353
3.250000, 70.623, 50.7558
3.300000, 70.923, 49.3206
3.350000, 71.215, 47.9151
3.400000, 71.497, 46.5305
3.450000, 71.771, 45.1711
3.500000, 72.038, 43.8433
3.550000, 72.299, 42.5530
3.600000, 72.554, 41.3051
3.650000, 72.805, 40.1017
3.700000, 73.051, 38.9371
3.750000, 73.291, 37.8014
3.820000, 73.617, 36.2566
3.870000, 73.844, 35.1878
3.950000, 74.201, 33.5442
4.000000, 74.421, 32.5614
4.060000, 74.681, 31.4272
4.120000, 74.937, 30.3369
4.180000, 75.189, 29.2842
4.250000, 75.478, 28.0983
4.310000, 75.723, 27.1144
4.370000, 75.967, 26.1591
4.440000, 76.250, 25.0827
4.500000, 76.491, 24.1945
4.550000, 76.691, 23.4749
4.620000, 76.968, 22.4901
4.680000, 77.204, 21.6600
4.750000, 77.478, 20.7019
4.820000, 77.751, 19.7587
4.870000, 77.946, 19.0978
4.940000, 78.216, 18.1864
5.000000, 78.447, 17.4116
5.080000, 78.751, 16.3779
5.150000, 79.014, 15.4691
5.220000, 79.274, 14.5612
5.300000, 79.569, 13.5281
5.380000, 79.860, 12.4969
5.450000, 80.109, 11.5924
5.520000, 80.354, 10.6832
5.600000, 80.629, 9.6396
5.700000, 80.965, 8.3359
5.800000, 81.291, 7.0408
5.900000, 81.606, 5.7551
6.000000, 81.911, 4.4739
6.080000, 82.148, 3.4581
6.150000, 82.350, 2.5821
6.220000, 82.547, 1.7209
6.300000, 82.767, 0.7518
6.400000, 83.032, -0.4403
6.500000, 83.290, -1.6031
6.600000, 83.540, -2.7282
6.700000, 83.783, -3.8176
6.800000, 84.019, -4.8759
6.900000, 84.250, -5.9014
7.000000, 84.477, -6.8921
7.100000, 84.700, -7.8505
7.200000, 84.918, -8.7814
7.300000, 85.133, -9.6885
7.400000, 85.346, -10.5731
7.500000, 85.556, -11.4366
7.620000, 85.805, -12.4508
7.750000, 86.069, -13.5297
7.880000, 86.329, -14.5889
8.000000, 86.565, -15.5503
8.120000, 86.796, -16.4987
8.250000, 87.041, -17.5120
8.380000, 87.280, -18.5059
8.500000, 87.495, -19.4043
8.620000, 87.706, -20.2850
8.750000, 87.930, -21.2151
8.850000, 88.099, -21.9113
9.000000, 88.348, -22.9260
9.120000, 88.545, -23.7140
9.250000, 88.757, -24.5435
9.380000, 88.968, -25.3511
9.500000, 89.162, -26.0841
9.620000, 89.356, -26.8082
9.750000, 89.566, -27.5851
9.880000, 89.767, -28.3630
10.000000, 89.943, -29.0858
10.150000, 90.150, -29.9962
10.300000, 90.348, -30.9194
10.440000, 90.526, -31.7931
10.600000, 90.723, -32.7990
10.750000, 90.906, -33.7457
10.900000, 91.085, -34.6895
11.060000, 91.271, -35.6807
11.200000, 91.429, -36.5319
11.380000, 91.628, -37.5944
11.500000, 91.758, -38.2797
11.720000, 91.999, -39.4930
11.800000, 92.088, -39.9209
12.060000, 92.386, -41.2769
12.200000, 92.552, -41.9966
12.410000, 92.808, -43.0778
12.500000, 92.919, -43.5480
12.650000, 93.106, -44.3428
12.800000, 93.293, -45.1561
13.150000, 93.729, -47.1366
13.200000, 93.791, -47.4282
13.400000, 94.038, -48.6129
13.600000, 94.281, -49.8199
13.800000, 94.522, -51.0426
14.000000, 94.759, -52.2766
14.300000, 95.108, -54.1482
14.500000, 95.338, -55.4144
14.750000, 95.621, -57.0269
15.000000, 95.900, -58.6777
15.250000, 96.175, -60.3672
15.500000, 96.441, -62.0861
15.750000, 96.697, -63.8214
16.000000, 96.943, -65.5597
16.250000, 97.181, -67.2953
16.500000, 97.414, -69.0331
16.750000, 97.644, -70.7881
17.000000, 97.873, -72.5832
17.250000, 98.099, -74.4382
17.500000, 98.316, -76.3661
17.750000, 98.519, -78.3661
18.000000, 98.704, -80.4231
18.250000, 98.869, -82.5126
18.500000, 99.014, -84.6041
18.750000, 99.139, -86.6708
19.000000, 99.249, -88.6931
19.250000, 99.348, -90.6622
19.500000, 99.439, -92.5815
19.750000, 99.523, -94.4612
20.000000, 99.600, -96.3145
20.299999, 99.684, -98.5185
20.600000, 99.756, -100.7070
20.900000, 99.812, -102.8737
21.200001, 99.852, -105.0020
21.400000, 99.870, -106.3893
21.799999, 99.884, -109.0673
22.000000, 99.883, -110.3511
22.400000, 99.868, -112.8002
22.700001, 99.848, -114.5336
23.000000, 99.821, -116.1817
23.299999, 99.789, -117.7500
23.600000, 99.754, -119.2461
24.000000, 99.701, -121.1416
24.299999, 99.656, -122.4941
24.700001, 99.586, -124.1992
25.000000, 99.525, -125.3901
25.400000, 99.436, -126.8370
25.799999, 99.343, -128.1149
26.200001, 99.255, -129.2501
26.500000, 99.193, -130.0388
26.900000, 99.113, -131.0416
27.200001, 99.051, -131.7614
27.600000, 98.963, -132.6534
28.000000, 98.868, -133.4283
28.500000, 98.754, -134.2103
29.000000, 98.657, -134.8478
29.500000, 98.572, -135.4245
30.000000, 98.485, -135.9180
30.400000, 98.417, -136.1764
30.700001, 98.374, -136.2648
31.100000, 98.343, -136.2756
31.500000, 98.354, -136.2758
32.000000, 98.418, -136.4957
32.500000, 98.502, -137.1283
33.000000, 98.558, -138.1348
33.500000, 98.561, -139.3039
34.000000, 98.514, -140.4033
34.500000, 98.437, -141.2898
35.000000, 98.351, -141.9394
35.500000, 98.270, -142.4045
36.000000, 98.198, -142.7502
36.500000, 98.134, -143.0164
37.000000, 98.075, -143.2153
37.500000, 98.023, -143.3481
38.200001, 97.963, -143.4319
38.700001, 97.933, -143.4377
39.500000, 97.907, -143.4109
40.000000, 97.905, -143.4021
40.599998, 97.912, -143.4211
41.200001, 97.927, -143.4863
41.799999, 97.943, -143.6049
42.500000, 97.955, -143.7855
43.099998, 97.958, -143.9206
43.700001, 97.955, -143.9898
44.400002, 97.952, -143.9772
45.000000, 97.955, -143.9114
45.500000, 97.961, -143.8355
46.200001, 97.974, -143.7101
46.799999, 97.987, -143.5836
47.500000, 98.005, -143.3922
48.200001, 98.032, -143.1350
48.700001, 98.061, -142.9305
49.400002, 98.114, -142.6598
50.000000, 98.163, -142.4368
50.799999, 98.236, -142.0778
51.500000, 98.320, -141.7092
52.200001, 98.424, -141.3667
53.000000, 98.557, -141.0446
53.799999, 98.700, -140.7700
54.500000, 98.835, -140.5616
55.200001, 98.983, -140.4330
56.000000, 99.158, -140.4625
57.000000, 99.361, -140.5948
58.000000, 99.598, -140.7341
59.000000, 99.854, -141.3904
60.000000, 100.047, -142.2461
60.799999, 100.198, -142.7407
61.500000, 100.349, -143.1912
62.200001, 100.503, -143.7336
63.000000, 100.673, -144.3992
64.000000, 100.883, -145.2701
65.000000, 101.087, -146.1796
66.000000, 101.295, -147.1226
67.000000, 101.509, -148.1734
68.000000, 101.726, -149.3755
69.000000, 101.944, -150.7744
70.000000, 102.158, -152.3633
71.000000, 102.369, -154.1811
72.000000, 102.562, -156.3032
73.000000, 102.713, -158.6643
74.000000, 102.818, -161.1652
75.000000, 102.871, -163.7438
76.199997, 102.864, -166.8306
77.500000, 102.775, -170.0198
78.800003, 102.620, -172.9041
80.000000, 102.439, -175.2048
81.199997, 102.245, -177.1541
82.500000, 102.033, -178.9246
83.800003, 101.825, 179.6226
85.000000, 101.645, 178.5186
86.199997, 101.476, 177.5734
87.500000, 101.305, 176.6955
88.500000, 101.183, 176.1069
90.000000, 101.019, 175.3199
91.199997, 100.910, 174.7188
92.500000, 100.805, 174.0260
93.800003, 100.706, 173.3194
95.000000, 100.619, 172.6509
96.199997, 100.532, 171.9614
97.500000, 100.434, 171.1899
98.800003, 100.328, 170.3948
100.000000, 100.220, 169.6552
101.500000, 100.069, 168.7590
103.000000, 99.903, 167.9391
104.400002, 99.739, 167.2745
106.000000, 99.550, 166.6408
107.500000, 99.374, 166.1475
109.000000, 99.200, 165.7366
110.599998, 99.015, 165.3624
112.000000, 98.849, 165.0814
113.800003, 98.631, 164.7772
115.000000, 98.481, 164.6318
117.199997, 98.217, 164.5569
118.000000, 98.129, 164.5804
120.599998, 97.844, 164.7786
122.000000, 97.690, 165.1869
124.099998, 97.497, 165.9836
125.000000, 97.420, 166.3008
126.500000, 97.293, 166.8505
128.000000, 97.177, 167.4299
131.500000, 96.971, 168.8440
132.000000, 96.947, 169.0555
134.000000, 96.868, 169.9358
136.000000, 96.810, 170.8412
138.000000, 96.774, 171.7196
140.000000, 96.758, 172.5110
143.000000, 96.766, 173.5786
145.000000, 96.788, 174.2244
147.500000, 96.827, 174.9742
150.000000, 96.874, 175.6033
152.500000, 96.930, 176.1107
155.000000, 96.995, 176.5234
157.500000, 97.060, 176.8502
160.000000, 97.117, 177.0578
162.500000, 97.171, 177.1803
165.000000, 97.249, 177.2330
167.500000, 97.333, 177.1754
170.000000, 97.403, 177.0750
172.500000, 97.453, 176.9093
175.000000, 97.496, 176.6770
177.500000, 97.542, 176.3317
180.000000, 97.580, 175.9243
182.500000, 97.604, 175.5166
185.000000, 97.618, 175.0991
187.500000, 97.624, 174.6579
190.000000, 97.619, 174.2239
192.500000, 97.607, 173.8143
195.000000, 97.591, 173.4377
197.500000, 97.576, 173.0949
200.000000, 97.564, 172.7513
203.000000, 97.548, 172.2892
206.000000, 97.524, 171.7668
209.000000, 97.488, 171.2330
212.000000, 97.439, 170.7438
214.000000, 97.399, 170.4612
218.000000, 97.314, 170.0141
220.000000, 97.274, 169.8276
224.000000, 97.205, 169.4565
227.000000, 97.158, 169.1370
230.000000, 97.107, 168.7670
233.000000, 97.046, 168.3751
236.000000, 96.973, 167.9810
240.000000, 96.858, 167.4846
243.000000, 96.771, 167.1926
247.000000, 96.656, 166.9020
250.000000, 96.571, 166.7172
254.000000, 96.458, 166.4479
258.000000, 96.337, 166.1670
262.000000, 96.199, 165.8914
265.000000, 96.084, 165.7105
269.000000, 95.918, 165.5261
272.000000, 95.783, 165.4839
276.000000, 95.586, 165.5837
280.000000, 95.374, 165.9250
285.000000, 95.123, 166.9040
290.000000, 94.957, 168.4594
295.000000, 94.918, 169.8947
300.000000, 94.943, 170.5328
304.000000, 94.932, 170.6486
307.000000, 94.883, 170.7045
311.000000, 94.779, 171.0074
315.000000, 94.685, 171.7729
320.000000, 94.665, 173.0380
325.000000, 94.748, 173.7487
330.000000, 94.822, 173.5797
335.000000, 94.806, 173.0009
340.000000, 94.699, 172.4869
345.000000, 94.527, 172.3242
350.000000, 94.333, 172.6536
355.000000, 94.167, 173.3825
360.000000, 94.043, 174.1352
365.000000, 93.930, 174.7784
370.000000, 93.809, 175.4934
375.000000, 93.692, 176.3583
382.000000, 93.550, 177.7498
387.000000, 93.468, 178.8314
395.000000, 93.376, -179.3923
400.000000, 93.343, -178.2806
406.000000, 93.335, -176.9738
412.000000, 93.353, -175.8751
418.000000, 93.373, -174.9557
425.000000, 93.395, -173.9883
431.000000, 93.408, -173.2379
437.000000, 93.414, -172.5031
444.000000, 93.416, -171.6870
450.000000, 93.411, -171.0236
455.000000, 93.405, -170.4232
462.000000, 93.404, -169.4452
468.000000, 93.421, -168.5946
475.000000, 93.452, -167.7842
482.000000, 93.471, -167.1354
487.000000, 93.476, -166.6913
494.000000, 93.479, -166.0764
500.000000, 93.476, -165.5188
508.000000, 93.465, -164.7091
515.000000, 93.454, -163.9310
522.000000, 93.446, -163.0889
530.000000, 93.440, -162.1157
538.000000, 93.440, -161.1429
545.000000, 93.443, -160.2449
552.000000, 93.450, -159.3096
560.000000, 93.459, -158.2116
570.000000, 93.470, -156.7925
580.000000, 93.507, -155.1857
590.000000, 93.600, -153.5745
600.000000, 93.712, -152.2314
608.000000, 93.794, -151.2117
615.000000, 93.863, -150.3109
622.000000, 93.934, -149.4031
630.000000, 94.020, -148.3696
640.000000, 94.138, -147.0856
650.000000, 94.271, -145.8018
660.000000, 94.422, -144.5640
670.000000, 94.589, -143.4045
680.000000, 94.771, -142.3216
690.000000, 94.969, -141.3372
700.000000, 95.183, -140.4819
710.000000, 95.410, -139.8253
720.000000, 95.639, -139.3820
730.000000, 95.860, -139.1019
740.000000, 96.072, -138.9316
750.000000, 96.279, -138.8688
762.000000, 96.520, -138.9435
775.000000, 96.759, -139.2084
788.000000, 96.970, -139.6605
800.000000, 97.139, -140.1993
812.000000, 97.284, -140.8051
825.000000, 97.415, -141.5082
838.000000, 97.519, -142.2724
850.000000, 97.589, -143.0059
862.000000, 97.638, -143.7208
875.000000, 97.672, -144.4208
885.000000, 97.685, -144.9280
900.000000, 97.681, -145.6337
912.000000, 97.660, -146.1271
925.000000, 97.625, -146.6022
938.000000, 97.576, -147.0068
950.000000, 97.521, -147.3039
962.000000, 97.456, -147.5387
975.000000, 97.374, -147.7191
988.000000, 97.287, -147.8086
1000.000000, 97.203, -147.8042
1015.000000, 97.095, -147.6749
1030.000000, 96.981, -147.4385
1044.000000, 96.872, -147.1683
1060.000000, 96.742, -146.7772
1075.000000, 96.612, -146.2467
1090.000000, 96.482, -145.5337
1106.000000, 96.349, -144.5768
1120.000000, 96.239, -143.5425
1138.000000, 96.120, -141.8676
1150.000000, 96.070, -140.5416
1172.000000, 96.079, -137.8486
1180.000000, 96.118, -136.8812
1206.000000, 96.349, -134.3033
1220.000000, 96.501, -133.3808
1241.000000, 96.714, -132.5001
1250.000000, 96.792, -132.2418
1265.000000, 96.902, -131.8947
1280.000000, 96.988, -131.6029
1315.000000, 97.124, -130.8828
1320.000000, 97.137, -130.7639
1340.000000, 97.178, -130.2405
1360.000000, 97.191, -129.6170
1380.000000, 97.201, -128.9022
1400.000000, 97.226, -128.1430
1430.000000, 97.261, -126.9926
1450.000000, 97.282, -126.1384
1475.000000, 97.319, -124.8925
1500.000000, 97.368, -123.5275
1525.000000, 97.434, -122.1202
1550.000000, 97.514, -120.7653
1575.000000, 97.594, -119.5248
1600.000000, 97.672, -118.2994
1625.000000, 97.755, -116.9762
1650.000000, 97.851, -115.5638
1675.000000, 97.961, -114.1631
1700.000000, 98.084, -112.8449
1725.000000, 98.220, -111.5825
1750.000000, 98.365, -110.3439
1775.000000, 98.510, -109.1840
1800.000000, 98.643, -108.1415
1825.000000, 98.757, -107.1572
1850.000000, 98.852, -106.0423
1875.000000, 98.951, -104.5615
1900.000000, 99.119, -102.7252
1925.000000, 99.386, -101.1357
1950.000000, 99.678, -100.2451
1975.000000, 99.925, -99.7932
2000.000000, 100.128, -99.4398
2030.000000, 100.339, -98.9791
2060.000000, 100.542, -98.4125
2090.000000, 100.748, -97.7320
2120.000000, 100.965, -97.0776
2140.000000, 101.111, -96.7121
2180.000000, 101.393, -96.0636
2200.000000, 101.528, -95.7628
2240.000000, 101.788, -95.2714
2270.000000, 101.978, -94.9384
2300.000000, 102.169, -94.5416
2330.000000, 102.369, -94.0957
2360.000000, 102.577, -93.7012
2400.000000, 102.867, -93.3966
2430.000000, 103.091, -93.3560
2470.000000, 103.381, -93.5388
2500.000000, 103.583, -93.8195
2540.000000, 103.837, -94.2698
2580.000000, 104.074, -94.7361
2620.000000, 104.287, -95.3006
2650.000000, 104.430, -95.8387
2690.000000, 104.597, -96.6488
2720.000000, 104.707, -97.2703
2760.000000, 104.827, -98.0963
2800.000000, 104.921, -98.8731
2850.000000, 105.014, -99.6089
2900.000000, 105.093, -100.1138
2950.000000, 105.171, -100.5594
3000.000000, 105.267, -101.0151
3040.000000, 105.353, -101.4264
3070.000000, 105.424, -101.7633
3110.000000, 105.528, -102.2919
3150.000000, 105.644, -102.9887
3200.000000, 105.792, -104.2158
3250.000000, 105.916, -105.9931
3300.000000, 105.979, -108.3439
3350.000000, 105.962, -111.0422
3400.000000, 105.838, -113.9500
3450.000000, 105.560, -117.0727
3500.000000, 105.049, -120.0786
3550.000000, 104.259, -121.6592
3600.000000, 103.376, -119.8375
3650.000000, 102.846, -114.7653
3700.000000, 102.910, -109.4531
3750.000000, 103.413, -106.9773
3820.000000, 104.017, -109.9067
3870.000000, 103.983, -114.0715
3950.000000, 103.192, -119.5627
4000.000000, 102.433, -121.2025
4060.000000, 101.410, -121.2578
4120.000000, 100.348, -119.2863
4180.000000, 99.332, -115.2317
4250.000000, 98.353, -107.8612
4310.000000, 97.844, -99.7069
4370.000000, 97.731, -91.3651
4440.000000, 98.042, -83.9993
4500.000000, 98.574, -80.3633
4550.000000, 99.098, -78.9664
4620.000000, 99.806, -78.9962
4680.000000, 100.280, -80.4388
4750.000000, 100.607, -83.1494
4820.000000, 100.683, -86.1116
4870.000000, 100.617, -87.7374
4940.000000, 100.474, -88.4863
5000.000000, 100.474, -87.6624
5080.000000, 100.813, -86.6094
5150.000000, 101.320, -87.3046
5220.000000, 101.882, -89.7237
5300.000000, 102.482, -94.3527
5380.000000, 102.931, -100.9424
5450.000000, 103.088, -108.0864
5520.000000, 102.933, -115.8534
5600.000000, 102.333, -124.2362
5700.000000, 101.101, -131.9786
5800.000000, 99.700, -135.8748
5900.000000, 98.416, -136.9602
6000.000000, 97.342, -136.3242
6080.000000, 96.657, -134.7615
6150.000000, 96.200, -132.7964
6220.000000, 95.892, -130.5922
6300.000000, 95.736, -128.3630
6400.000000, 95.790, -127.0508
6500.000000, 95.918, -127.9092
6600.000000, 95.927, -130.3655
6700.000000, 95.733, -133.6517
6800.000000, 95.305, -136.9736
6900.000000, 94.667, -139.4508
7000.000000, 93.898, -140.3365
7100.000000, 93.148, -139.2024
7200.000000, 92.594, -136.2705
7300.000000, 92.319, -132.4288
7400.000000, 92.292, -128.5831
7500.000000, 92.467, -125.1741
7620.000000, 92.929, -121.9296
7750.000000, 93.719, -119.4963
7880.000000, 94.649, -118.7175
8000.000000, 95.549, -119.9512
8120.000000, 96.468, -122.9909
8250.000000, 97.464, -128.4157
8380.000000, 98.331, -136.2704
8500.000000, 98.842, -145.5286
8620.000000, 98.934, -155.8348
8750.000000, 98.562, -166.5288
8850.000000, 98.024, -173.6499
9000.000000, 97.018, 177.8463
9120.000000, 96.186, 172.7850
9250.000000, 95.342, 168.9398
9380.000000, 94.567, 166.5175
9500.000000, 93.922, 165.1206
9620.000000, 93.367, 164.3915
9750.000000, 92.938, 164.5734
9880.000000, 92.809, 165.6111
10000.000000, 93.020, 166.3145
10150.000000, 93.628, 165.3623
10300.000000, 94.421, 162.1407
10440.000000, 95.274, 157.2981
10600.000000, 96.392, 148.6521
10750.000000, 97.425, 136.0875
10900.000000, 98.019, 118.7113
11060.000000, 97.641, 97.0146
11200.000000, 96.302, 78.7822
11380.000000, 93.539, 59.9220
11500.000000, 91.318, 50.2067
11720.000000, 86.511, 35.2869
11800.000000, 84.434, 30.4870
12060.000000, 83.865, 165.4937
12200.000000, 87.568, 160.0468
12410.000000, 91.210, 141.1339
12500.000000, 92.089, 133.2560
12650.000000, 93.017, 121.5843
12800.000000, 93.594, 111.3439
13150.000000, 93.736, 87.2269
13200.000000, 93.549, 84.0246
13400.000000, 92.398, 74.5558
13600.000000, 91.388, 70.5118
13800.000000, 90.879, 65.8529
14000.000000, 90.209, 59.2538
14300.000000, 88.850, 52.5825
14500.000000, 88.580, 50.1553
14750.000000, 89.492, 39.6208
15000.000000, 90.126, 11.5942
15250.000000, 88.015, -27.8007
15500.000000, 82.641, -64.2484
15750.000000, 75.818, -101.1301
16000.000000, 72.347, -150.1418
16250.000000, 73.182, 178.1133
16500.000000, 74.418, 166.5480
16750.000000, 76.936, 167.7339
17000.000000, 80.469, 159.6027
17250.000000, 82.383, 135.4211
17500.000000, 81.468, 107.4163
17750.000000, 78.272, 87.9260
18000.000000, 73.892, 80.6022
18250.000000, 69.041, 91.8713
18500.000000, 66.738, 163.2991
18750.000000, 69.089, -167.5400
19000.000000, 72.040, -160.6697
19250.000000, 74.440, -162.6399
19500.000000, 75.744, -171.0753
19750.000000, 75.704, 178.8584
20000.000000, 74.296, 172.5116
20300.000000, 71.589, 174.0284
20600.000000, 69.148, 179.4457
20900.000000, 66.913, -176.8054
21200.000000, 63.643, -171.4072
21400.000000, 60.466, -165.7661
21800.000000, 51.654, -158.1957
22000.000000, 46.331, -168.2721
22400.000000, 36.393, 165.7415
22700.000000, 32.748, 171.1268
23000.000000, 29.140, -162.8860
23300.000000, 23.936, -36.6002
23600.000000, 19.373, -10.4022
24000.000000, 17.373, -3.4208
