* Measurement data measured by REW V5.31.3
* Source: Mic In (Elgato Wave:XLR), MICROPHONE (Master Volume), R, volume: 0.640
* Format: 2M Log Swept Sine, 1 sweep at -12.0 dBFS with no timing reference
* Dated: Sep 17, 2024 9:34:24 AM
* REW Settings:
*  C-weighting compensation: Off
*  Target level: 75.0 dB
* Note: ; 
* Measurement: DUNU DaVinci L
* Smoothing: 1/24 octave
* Frequency Step: 1/48 octave
* Start Frequency: 20.000 Hz
*
* Freq(Hz), SPL(dB), Phase(degrees)
20.000000, 98.819, -134.6793
20.299999, 98.861, -135.4897
20.600000, 98.903, -136.3057
20.900000, 98.944, -137.1395
21.200001, 98.982, -138.0001
21.400000, 99.004, -138.5875
21.799999, 99.036, -139.7708
22.000000, 99.046, -140.3500
22.400000, 99.058, -141.4410
22.700001, 99.065, -142.1833
23.000000, 99.078, -142.8686
23.299999, 99.099, -143.5247
23.600000, 99.129, -144.1857
24.000000, 99.175, -145.1136
24.299999, 99.207, -145.8426
24.700001, 99.239, -146.8134
25.000000, 99.256, -147.4999
25.400000, 99.274, -148.3227
25.799999, 99.296, -149.0464
26.200001, 99.325, -149.7147
26.500000, 99.349, -150.2036
26.900000, 99.378, -150.8445
27.200001, 99.397, -151.3059
27.600000, 99.420, -151.8832
28.000000, 99.447, -152.4390
28.500000, 99.486, -153.1984
29.000000, 99.517, -154.1206
29.500000, 99.513, -155.1539
30.000000, 99.471, -156.1116
30.400000, 99.429, -156.7283
30.700001, 99.406, -157.1141
31.100000, 99.395, -157.6053
31.500000, 99.404, -158.1666
32.000000, 99.422, -159.0194
32.500000, 99.432, -159.9367
33.000000, 99.444, -160.7858
33.500000, 99.479, -161.5969
34.000000, 99.534, -162.5254
34.500000, 99.575, -163.6293
35.000000, 99.569, -164.7490
35.500000, 99.515, -165.6198
36.000000, 99.443, -166.0646
36.500000, 99.392, -166.1051
37.000000, 99.390, -165.9424
37.500000, 99.441, -165.8693
38.200001, 99.548, -166.3447
38.700001, 99.593, -167.1111
39.500000, 99.563, -168.5193
40.000000, 99.513, -169.2202
40.599998, 99.472, -169.8781
41.200001, 99.469, -170.5421
41.799999, 99.487, -171.3442
42.500000, 99.497, -172.3546
43.099998, 99.489, -173.0555
43.700001, 99.488, -173.4946
44.400002, 99.514, -173.8556
45.000000, 99.537, -174.2469
45.500000, 99.531, -174.6381
46.200001, 99.469, -175.1317
46.799999, 99.386, -175.3876
47.500000, 99.307, -175.5931
48.200001, 99.271, -176.1625
48.700001, 99.241, -176.9128
49.400002, 99.172, -178.0777
50.000000, 99.150, -178.9813
50.799999, 99.207, 179.5430
51.500000, 99.241, 178.3311
52.200001, 99.325, 177.8681
53.000000, 99.516, 177.4427
53.799999, 99.579, 178.1263
54.500000, 99.885, -178.8663
55.200001, 100.710, -177.9385
56.000000, 101.313, 177.0838
57.000000, 100.480, 170.2044
58.000000, 99.003, 172.6520
59.000000, 98.512, 178.5574
60.000000, 98.687, 179.9962
60.799999, 98.789, 177.7953
61.500000, 98.677, 175.4520
62.200001, 98.566, 173.9270
63.000000, 98.583, 172.5755
64.000000, 98.634, 171.0441
65.000000, 98.699, 170.4429
66.000000, 98.758, 170.1726
67.000000, 98.735, 170.1157
68.000000, 98.659, 170.1656
69.000000, 98.563, 169.9946
70.000000, 98.460, 169.3857
71.000000, 98.354, 168.5415
72.000000, 98.279, 167.7844
73.000000, 98.259, 167.1723
74.000000, 98.268, 166.6336
75.000000, 98.262, 166.1870
76.199997, 98.208, 165.8370
77.500000, 98.107, 165.6385
78.800003, 98.009, 165.3624
80.000000, 97.938, 164.8412
81.199997, 97.877, 164.1592
82.500000, 97.821, 163.5367
83.800003, 97.777, 163.0678
85.000000, 97.728, 162.7255
86.199997, 97.665, 162.3776
87.500000, 97.578, 161.9479
88.500000, 97.508, 161.6185
90.000000, 97.418, 161.1016
91.199997, 97.357, 160.6992
92.500000, 97.294, 160.3199
93.800003, 97.229, 160.0220
95.000000, 97.168, 159.7669
96.199997, 97.102, 159.5021
97.500000, 97.029, 159.2035
98.800003, 96.956, 158.8937
100.000000, 96.891, 158.6057
101.500000, 96.808, 158.2663
103.000000, 96.727, 157.9821
104.400002, 96.655, 157.7380
106.000000, 96.572, 157.4344
107.500000, 96.488, 157.1641
109.000000, 96.401, 156.9120
110.599998, 96.306, 156.6490
112.000000, 96.225, 156.4329
113.800003, 96.127, 156.1858
115.000000, 96.064, 156.0290
117.199997, 95.944, 155.7570
118.000000, 95.898, 155.6712
120.599998, 95.753, 155.3926
122.000000, 95.676, 155.2085
124.099998, 95.559, 154.9897
125.000000, 95.511, 154.9225
126.500000, 95.428, 154.8378
128.000000, 95.346, 154.7889
131.500000, 95.155, 154.6373
132.000000, 95.127, 154.6232
134.000000, 95.024, 154.5587
136.000000, 94.921, 154.4154
138.000000, 94.812, 154.2946
140.000000, 94.703, 154.2582
143.000000, 94.555, 154.3241
145.000000, 94.464, 154.3636
147.500000, 94.339, 154.3995
150.000000, 94.209, 154.5078
152.500000, 94.084, 154.6656
155.000000, 93.969, 154.8037
157.500000, 93.848, 154.9297
160.000000, 93.728, 155.1100
162.500000, 93.612, 155.2831
165.000000, 93.502, 155.4660
167.500000, 93.390, 155.6828
170.000000, 93.272, 155.9615
172.500000, 93.150, 156.2934
175.000000, 93.048, 156.6810
177.500000, 92.955, 156.9476
180.000000, 92.853, 157.3897
182.500000, 92.773, 157.8848
185.000000, 92.690, 158.1689
187.500000, 92.599, 158.4879
190.000000, 92.516, 158.9018
192.500000, 92.432, 159.3370
195.000000, 92.345, 159.7603
197.500000, 92.260, 160.1700
200.000000, 92.183, 160.6329
203.000000, 92.098, 161.2562
206.000000, 92.010, 161.9557
209.000000, 91.919, 162.7588
212.000000, 91.830, 163.7444
214.000000, 91.785, 164.4455
218.000000, 91.756, 165.5684
220.000000, 91.776, 166.0066
224.000000, 91.842, 166.7101
227.000000, 91.873, 167.0273
230.000000, 91.876, 167.1346
233.000000, 91.852, 167.2164
236.000000, 91.806, 167.3763
240.000000, 91.745, 167.6846
243.000000, 91.715, 168.0099
247.000000, 91.674, 168.4795
250.000000, 91.643, 168.8295
254.000000, 91.604, 169.3543
258.000000, 91.556, 169.8948
262.000000, 91.510, 170.3965
265.000000, 91.486, 170.8027
269.000000, 91.461, 171.3079
272.000000, 91.440, 171.6701
276.000000, 91.417, 172.2070
280.000000, 91.399, 172.7413
285.000000, 91.381, 173.3594
290.000000, 91.359, 173.9611
295.000000, 91.341, 174.5257
300.000000, 91.327, 175.0958
304.000000, 91.315, 175.5552
307.000000, 91.308, 175.8773
311.000000, 91.305, 176.2708
315.000000, 91.302, 176.6245
320.000000, 91.296, 177.0656
325.000000, 91.291, 177.5405
330.000000, 91.292, 178.0060
335.000000, 91.291, 178.4450
340.000000, 91.289, 178.8475
345.000000, 91.290, 179.2326
350.000000, 91.293, 179.6080
355.000000, 91.291, 179.9891
360.000000, 91.293, -179.6569
365.000000, 91.299, -179.3214
370.000000, 91.303, -178.9771
375.000000, 91.304, -178.6430
382.000000, 91.307, -178.2096
387.000000, 91.313, -177.9137
395.000000, 91.319, -177.4377
400.000000, 91.322, -177.1559
406.000000, 91.326, -176.8312
412.000000, 91.331, -176.5248
418.000000, 91.335, -176.2169
425.000000, 91.342, -175.9185
431.000000, 91.346, -175.6984
437.000000, 91.345, -175.5188
444.000000, 91.329, -175.3464
450.000000, 91.308, -175.1505
455.000000, 91.290, -174.9461
462.000000, 91.263, -174.6186
468.000000, 91.242, -174.3416
475.000000, 91.219, -173.9979
482.000000, 91.202, -173.6215
487.000000, 91.191, -173.3631
494.000000, 91.177, -173.0343
500.000000, 91.165, -172.7354
508.000000, 91.148, -172.2857
515.000000, 91.138, -171.9290
522.000000, 91.126, -171.5652
530.000000, 91.109, -171.1702
538.000000, 91.098, -170.8099
545.000000, 91.088, -170.4885
552.000000, 91.076, -170.1706
560.000000, 91.061, -169.8176
570.000000, 91.041, -169.4002
580.000000, 91.021, -168.9550
590.000000, 90.998, -168.5380
600.000000, 90.970, -168.1195
608.000000, 90.944, -167.7313
615.000000, 90.924, -167.3746
622.000000, 90.904, -167.0480
630.000000, 90.882, -166.6932
640.000000, 90.854, -166.2443
650.000000, 90.825, -165.7648
660.000000, 90.793, -165.2317
670.000000, 90.762, -164.6683
680.000000, 90.733, -164.1353
690.000000, 90.705, -163.6041
700.000000, 90.681, -163.0485
710.000000, 90.653, -162.4554
720.000000, 90.623, -161.8693
730.000000, 90.596, -161.2663
740.000000, 90.572, -160.6456
750.000000, 90.552, -160.0309
762.000000, 90.527, -159.2889
775.000000, 90.503, -158.4470
788.000000, 90.481, -157.5565
800.000000, 90.465, -156.7563
812.000000, 90.451, -155.9707
825.000000, 90.440, -155.0892
838.000000, 90.430, -154.1588
850.000000, 90.428, -153.3053
862.000000, 90.429, -152.4448
875.000000, 90.433, -151.4812
885.000000, 90.439, -150.7341
900.000000, 90.454, -149.5719
912.000000, 90.471, -148.6712
925.000000, 90.495, -147.7401
938.000000, 90.529, -146.7787
950.000000, 90.565, -145.8810
962.000000, 90.604, -144.9979
975.000000, 90.647, -144.0440
988.000000, 90.701, -143.1069
1000.000000, 90.761, -142.2557
1015.000000, 90.842, -141.2341
1030.000000, 90.927, -140.2365
1044.000000, 91.014, -139.3557
1060.000000, 91.119, -138.4025
1075.000000, 91.225, -137.5734
1090.000000, 91.336, -136.8264
1106.000000, 91.455, -136.1222
1120.000000, 91.556, -135.6003
1138.000000, 91.682, -135.0235
1150.000000, 91.762, -134.6790
1172.000000, 91.895, -134.0801
1180.000000, 91.939, -133.8718
1206.000000, 92.073, -133.2581
1220.000000, 92.141, -132.9368
1241.000000, 92.234, -132.4644
1250.000000, 92.272, -132.2615
1265.000000, 92.330, -131.9156
1280.000000, 92.386, -131.5659
1315.000000, 92.515, -130.7332
1320.000000, 92.533, -130.6104
1340.000000, 92.600, -130.1108
1360.000000, 92.667, -129.6189
1380.000000, 92.731, -129.1217
1400.000000, 92.792, -128.6043
1430.000000, 92.887, -127.7941
1450.000000, 92.954, -127.2806
1475.000000, 93.038, -126.6068
1500.000000, 93.120, -125.9268
1525.000000, 93.200, -125.2358
1550.000000, 93.278, -124.5170
1575.000000, 93.365, -123.7969
1600.000000, 93.461, -123.0717
1625.000000, 93.557, -122.3516
1650.000000, 93.658, -121.6469
1675.000000, 93.762, -120.9617
1700.000000, 93.871, -120.3011
1725.000000, 93.983, -119.6519
1750.000000, 94.098, -119.0286
1775.000000, 94.219, -118.4280
1800.000000, 94.343, -117.8490
1825.000000, 94.472, -117.3047
1850.000000, 94.604, -116.8217
1875.000000, 94.739, -116.3564
1900.000000, 94.878, -115.9133
1925.000000, 95.018, -115.5254
1950.000000, 95.157, -115.1878
1975.000000, 95.299, -114.8911
2000.000000, 95.441, -114.6372
2030.000000, 95.612, -114.4097
2060.000000, 95.781, -114.2605
2090.000000, 95.946, -114.1732
2120.000000, 96.109, -114.1527
2140.000000, 96.215, -114.1730
2180.000000, 96.417, -114.2873
2200.000000, 96.514, -114.3746
2240.000000, 96.699, -114.6171
2270.000000, 96.829, -114.8445
2300.000000, 96.951, -115.1007
2330.000000, 97.064, -115.3776
2360.000000, 97.174, -115.6663
2400.000000, 97.311, -116.0732
2430.000000, 97.405, -116.3853
2470.000000, 97.519, -116.7949
2500.000000, 97.602, -117.0949
2540.000000, 97.720, -117.5551
2580.000000, 97.838, -118.0396
2620.000000, 97.950, -118.5443
2650.000000, 98.027, -118.9341
2690.000000, 98.131, -119.4993
2720.000000, 98.214, -119.9911
2760.000000, 98.327, -120.7231
2800.000000, 98.433, -121.5555
2850.000000, 98.553, -122.7669
2900.000000, 98.657, -124.2384
2950.000000, 98.722, -125.9410
3000.000000, 98.732, -127.8218
3040.000000, 98.690, -129.3960
3070.000000, 98.631, -130.5629
3110.000000, 98.512, -132.0148
3150.000000, 98.353, -133.2430
3200.000000, 98.119, -134.4200
3250.000000, 97.873, -135.1424
3300.000000, 97.644, -135.5272
3350.000000, 97.443, -135.6671
3400.000000, 97.272, -135.7006
3450.000000, 97.125, -135.7474
3500.000000, 96.985, -135.8273
3550.000000, 96.841, -135.9072
3600.000000, 96.691, -135.9425
3650.000000, 96.539, -135.9075
3700.000000, 96.396, -135.8054
3750.000000, 96.259, -135.6266
3820.000000, 96.076, -135.3072
3870.000000, 95.953, -135.0388
3950.000000, 95.763, -134.5366
4000.000000, 95.650, -134.1594
4060.000000, 95.533, -133.5956
4120.000000, 95.445, -132.9388
4180.000000, 95.393, -132.2922
4250.000000, 95.374, -131.7279
4310.000000, 95.381, -131.4609
4370.000000, 95.403, -131.4279
4440.000000, 95.434, -131.7113
4500.000000, 95.459, -132.2492
4550.000000, 95.469, -132.8798
4620.000000, 95.453, -134.0435
4680.000000, 95.403, -135.2677
4750.000000, 95.292, -136.8556
4820.000000, 95.118, -138.4940
4870.000000, 94.958, -139.6252
4940.000000, 94.689, -141.0719
5000.000000, 94.423, -142.1476
5080.000000, 94.032, -143.2595
5150.000000, 93.670, -143.9200
5220.000000, 93.305, -144.3120
5300.000000, 92.898, -144.4754
5380.000000, 92.506, -144.3865
5450.000000, 92.176, -144.1517
5520.000000, 91.856, -143.7739
5600.000000, 91.507, -143.1572
5700.000000, 91.110, -142.0863
5800.000000, 90.787, -140.7250
5900.000000, 90.564, -139.3346
6000.000000, 90.429, -138.2194
6080.000000, 90.355, -137.6426
6150.000000, 90.303, -137.2982
6220.000000, 90.262, -137.0598
6300.000000, 90.231, -136.8928
6400.000000, 90.228, -136.7961
6500.000000, 90.277, -136.8711
6600.000000, 90.384, -137.2017
6700.000000, 90.553, -137.9296
6800.000000, 90.771, -139.1729
6900.000000, 91.032, -140.9549
7000.000000, 91.332, -143.3636
7100.000000, 91.649, -146.5223
7200.000000, 91.948, -150.4545
7300.000000, 92.198, -155.0453
7400.000000, 92.383, -160.0994
7500.000000, 92.512, -165.5022
7620.000000, 92.572, -172.4409
7750.000000, 92.496, 179.9752
7880.000000, 92.342, 172.5922
8000.000000, 92.140, 165.7151
8120.000000, 91.821, 158.8039
8250.000000, 91.322, 151.8386
8380.000000, 90.716, 145.8181
8500.000000, 90.111, 141.1212
8620.000000, 89.477, 137.2374
8750.000000, 88.757, 134.0074
8850.000000, 88.203, 132.4185
9000.000000, 87.487, 131.2531
9120.000000, 86.996, 130.6636
9250.000000, 86.463, 130.6201
9380.000000, 86.008, 131.5184
9500.000000, 85.692, 132.6205
9620.000000, 85.433, 133.7610
9750.000000, 85.187, 135.0867
9880.000000, 84.973, 136.6501
10000.000000, 84.808, 138.3582
10150.000000, 84.656, 140.7640
10300.000000, 84.568, 143.2862
10440.000000, 84.535, 145.6752
10600.000000, 84.536, 148.4352
10750.000000, 84.565, 151.0590
10900.000000, 84.633, 153.7623
11060.000000, 84.752, 156.7094
11200.000000, 84.894, 159.2758
11380.000000, 85.130, 162.4692
11500.000000, 85.321, 164.4674
11720.000000, 85.730, 167.7155
11800.000000, 85.888, 168.7133
12060.000000, 86.382, 171.3800
12200.000000, 86.634, 172.7510
12410.000000, 87.058, 174.8467
12500.000000, 87.268, 175.6307
12650.000000, 87.647, 176.6339
12800.000000, 88.048, 177.1950
13150.000000, 88.981, 176.4073
13200.000000, 89.101, 176.0349
13400.000000, 89.515, 173.9744
13600.000000, 89.795, 171.2314
13800.000000, 89.940, 168.1053
14000.000000, 89.960, 164.8258
14300.000000, 89.794, 159.8384
14500.000000, 89.576, 156.4623
14750.000000, 89.181, 151.9149
15000.000000, 88.570, 146.8703
15250.000000, 87.627, 141.7282
15500.000000, 86.217, 137.8003
15750.000000, 84.425, 138.6818
16000.000000, 83.134, 144.6199
16250.000000, 82.508, 148.3223
16500.000000, 81.841, 149.7340
16750.000000, 81.021, 151.1600
17000.000000, 80.144, 153.1561
17250.000000, 79.265, 155.6197
17500.000000, 78.404, 158.4650
17750.000000, 77.573, 161.6191
18000.000000, 76.776, 165.0710
18250.000000, 76.035, 168.8812
18500.000000, 75.392, 172.7591
18750.000000, 74.823, 175.9784
19000.000000, 74.169, 178.7441
19250.000000, 73.434, -177.1216
19500.000000, 72.939, -171.4662
19750.000000, 72.835, -167.1022
20000.000000, 72.786, -165.8795
