* Measurement data measured by REW V5.31.3
* Source: Mic In (Elgato Wave:XLR), MICROPHONE (Master Volume), R, volume: 0.660
* Format: 2M Log Swept Sine, 1 sweep at -12.0 dBFS with no timing reference
* Dated: Sep 5, 2024 7:20:20 AM
* REW Settings:
*  C-weighting compensation: Off
*  Target level: 75.0 dB
* Note: ; 
* Measurement: Floaudio Bluelover L
* Smoothing: 1/24 octave
* Frequency Step: 1/48 octave
* Start Frequency: 20.000 Hz
*
* Freq(Hz), SPL(dB), Phase(degrees)
20.000000, 98.650, -125.1956
20.299999, 98.718, -126.3929
20.600000, 98.784, -127.6403
20.900000, 98.839, -128.9234
21.200001, 98.881, -130.2033
21.400000, 98.900, -131.0304
21.799999, 98.928, -132.5724
22.000000, 98.940, -133.2786
22.400000, 98.971, -134.5847
22.700001, 99.005, -135.5182
23.000000, 99.046, -136.4593
23.299999, 99.089, -137.4332
23.600000, 99.129, -138.4402
24.000000, 99.168, -139.7953
24.299999, 99.188, -140.7831
24.700001, 99.207, -142.0272
25.000000, 99.221, -142.9083
25.400000, 99.243, -144.0491
25.799999, 99.267, -145.1926
26.200001, 99.285, -146.3506
26.500000, 99.292, -147.2109
26.900000, 99.293, -148.3115
27.200001, 99.291, -149.0884
27.600000, 99.293, -150.0701
28.000000, 99.302, -151.0313
28.500000, 99.319, -152.2682
29.000000, 99.330, -153.5549
29.500000, 99.330, -154.8382
30.000000, 99.323, -156.0717
30.400000, 99.318, -157.0234
30.700001, 99.314, -157.7252
31.100000, 99.307, -158.6492
31.500000, 99.299, -159.5558
32.000000, 99.287, -160.6538
32.500000, 99.274, -161.7145
33.000000, 99.259, -162.7473
33.500000, 99.240, -163.7411
34.000000, 99.215, -164.6620
34.500000, 99.193, -165.4900
35.000000, 99.184, -166.2644
35.500000, 99.188, -167.0812
36.000000, 99.193, -168.0210
36.500000, 99.178, -169.0560
37.000000, 99.134, -170.0445
37.500000, 99.079, -170.8599
38.200001, 99.037, -171.8557
38.700001, 99.025, -172.7520
39.500000, 98.928, -174.4342
40.000000, 98.810, -175.1239
40.599998, 98.712, -175.3124
41.200001, 98.745, -175.4337
41.799999, 98.844, -176.2628
42.500000, 98.869, -177.9521
43.099998, 98.792, -179.2155
43.700001, 98.709, -179.9885
44.400002, 98.672, 179.2985
45.000000, 98.659, 178.4767
45.500000, 98.627, 177.6808
46.200001, 98.543, 176.6722
46.799999, 98.465, 176.0231
47.500000, 98.398, 175.3822
48.200001, 98.350, 174.6423
48.700001, 98.311, 174.0359
49.400002, 98.240, 173.1957
50.000000, 98.175, 172.5573
50.799999, 98.098, 171.8002
51.500000, 98.041, 171.1647
52.200001, 97.990, 170.4949
53.000000, 97.917, 169.7059
53.799999, 97.830, 169.0385
54.500000, 97.760, 168.5139
55.200001, 97.689, 167.9229
56.000000, 97.590, 167.2582
57.000000, 97.476, 166.3201
58.000000, 97.288, 165.1755
59.000000, 97.075, 165.0163
60.000000, 97.065, 164.9549
60.799999, 97.075, 164.1109
61.500000, 97.026, 163.3318
62.200001, 96.970, 162.7693
63.000000, 96.918, 162.2008
64.000000, 96.836, 161.5635
65.000000, 96.752, 161.0551
66.000000, 96.657, 160.5287
67.000000, 96.543, 160.0457
68.000000, 96.428, 159.6105
69.000000, 96.320, 159.1559
70.000000, 96.215, 158.6633
71.000000, 96.112, 158.1927
72.000000, 96.015, 157.7647
73.000000, 95.922, 157.3574
74.000000, 95.826, 156.9780
75.000000, 95.725, 156.6537
76.199997, 95.604, 156.3101
77.500000, 95.473, 155.9631
78.800003, 95.346, 155.5726
80.000000, 95.220, 155.2067
81.199997, 95.094, 154.9280
82.500000, 94.965, 154.6656
83.800003, 94.839, 154.4102
85.000000, 94.717, 154.1871
86.199997, 94.592, 154.0580
87.500000, 94.470, 154.0171
88.500000, 94.388, 153.9578
90.000000, 94.257, 153.7629
91.199997, 94.142, 153.6620
92.500000, 94.021, 153.5912
93.800003, 93.900, 153.5398
95.000000, 93.791, 153.5320
96.199997, 93.687, 153.5377
97.500000, 93.575, 153.5598
98.800003, 93.461, 153.5951
100.000000, 93.355, 153.6548
101.500000, 93.225, 153.7405
103.000000, 93.099, 153.8252
104.400002, 92.985, 153.9459
106.000000, 92.864, 154.1523
107.500000, 92.756, 154.3687
109.000000, 92.647, 154.5999
110.599998, 92.525, 154.8602
112.000000, 92.418, 155.1083
113.800003, 92.287, 155.4678
115.000000, 92.208, 155.7411
117.199997, 92.080, 156.2677
118.000000, 92.036, 156.4577
120.599998, 91.893, 157.0808
122.000000, 91.816, 157.4143
124.099998, 91.706, 157.9255
125.000000, 91.661, 158.1471
126.500000, 91.591, 158.5116
128.000000, 91.520, 158.8793
131.500000, 91.371, 159.8099
132.000000, 91.352, 159.9338
134.000000, 91.273, 160.4331
136.000000, 91.198, 161.0660
138.000000, 91.133, 161.7299
140.000000, 91.069, 162.3818
143.000000, 90.975, 163.2499
145.000000, 90.919, 163.7912
147.500000, 90.869, 164.5692
150.000000, 90.835, 165.3127
152.500000, 90.795, 166.0644
155.000000, 90.769, 166.8559
157.500000, 90.760, 167.5588
160.000000, 90.750, 168.1884
162.500000, 90.740, 168.7894
165.000000, 90.728, 169.3300
167.500000, 90.721, 169.8665
170.000000, 90.717, 170.3693
172.500000, 90.712, 170.8729
175.000000, 90.712, 171.3719
177.500000, 90.715, 171.8310
180.000000, 90.717, 172.3002
182.500000, 90.720, 172.7524
185.000000, 90.723, 173.1785
187.500000, 90.727, 173.5738
190.000000, 90.736, 173.9645
192.500000, 90.747, 174.3533
195.000000, 90.758, 174.7502
197.500000, 90.770, 175.1469
200.000000, 90.780, 175.5431
203.000000, 90.791, 176.0059
206.000000, 90.802, 176.4500
209.000000, 90.814, 176.8726
212.000000, 90.830, 177.3190
214.000000, 90.842, 177.6463
218.000000, 90.874, 178.4285
220.000000, 90.899, 178.8701
224.000000, 90.975, 179.7599
227.000000, 91.058, -179.5926
230.000000, 91.175, -179.0842
233.000000, 91.315, -178.8812
236.000000, 91.448, -178.9981
240.000000, 91.576, -179.4785
243.000000, 91.628, -179.9595
247.000000, 91.652, 179.5035
250.000000, 91.659, 179.2415
254.000000, 91.664, 179.0550
258.000000, 91.658, 178.9529
262.000000, 91.654, 178.8655
265.000000, 91.654, 178.8207
269.000000, 91.657, 178.8004
272.000000, 91.661, 178.8013
276.000000, 91.664, 178.7824
280.000000, 91.670, 178.7383
285.000000, 91.678, 178.6984
290.000000, 91.683, 178.6880
295.000000, 91.688, 178.6700
300.000000, 91.694, 178.6711
304.000000, 91.692, 178.6587
307.000000, 91.690, 178.6263
311.000000, 91.690, 178.5714
315.000000, 91.689, 178.5298
320.000000, 91.689, 178.5006
325.000000, 91.688, 178.4753
330.000000, 91.684, 178.4338
335.000000, 91.683, 178.3963
340.000000, 91.680, 178.3613
345.000000, 91.674, 178.3107
350.000000, 91.664, 178.2588
355.000000, 91.650, 178.2122
360.000000, 91.636, 178.1805
365.000000, 91.625, 178.1362
370.000000, 91.613, 178.0845
375.000000, 91.597, 178.0544
382.000000, 91.575, 178.0417
387.000000, 91.560, 178.0088
395.000000, 91.538, 177.9605
400.000000, 91.523, 177.9612
406.000000, 91.502, 177.9771
412.000000, 91.478, 177.9507
418.000000, 91.454, 177.8985
425.000000, 91.424, 177.8767
431.000000, 91.399, 177.8652
437.000000, 91.375, 177.8388
444.000000, 91.343, 177.8417
450.000000, 91.312, 177.8450
455.000000, 91.285, 177.8409
462.000000, 91.244, 177.8527
468.000000, 91.211, 177.8762
475.000000, 91.172, 177.9180
482.000000, 91.132, 177.9948
487.000000, 91.104, 178.0750
494.000000, 91.065, 178.1676
500.000000, 91.031, 178.2198
508.000000, 90.986, 178.2912
515.000000, 90.951, 178.4097
522.000000, 90.915, 178.5185
530.000000, 90.868, 178.6476
538.000000, 90.823, 178.7910
545.000000, 90.785, 178.9238
552.000000, 90.747, 179.0590
560.000000, 90.699, 179.2262
570.000000, 90.645, 179.4716
580.000000, 90.594, 179.7302
590.000000, 90.540, 179.9420
600.000000, 90.487, -179.8117
608.000000, 90.445, -179.5777
615.000000, 90.408, -179.3749
622.000000, 90.370, -179.1625
630.000000, 90.323, -178.9168
640.000000, 90.265, -178.6130
650.000000, 90.215, -178.2683
660.000000, 90.166, -177.9116
670.000000, 90.116, -177.5519
680.000000, 90.064, -177.1749
690.000000, 90.015, -176.7644
700.000000, 89.974, -176.3413
710.000000, 89.931, -175.9145
720.000000, 89.885, -175.4994
730.000000, 89.842, -175.0792
740.000000, 89.801, -174.6390
750.000000, 89.757, -174.1982
762.000000, 89.713, -173.6121
775.000000, 89.670, -172.9541
788.000000, 89.629, -172.2924
800.000000, 89.598, -171.6689
812.000000, 89.571, -171.0024
825.000000, 89.538, -170.3033
838.000000, 89.509, -169.6255
850.000000, 89.491, -168.9678
862.000000, 89.482, -168.2805
875.000000, 89.476, -167.5266
885.000000, 89.474, -166.9525
900.000000, 89.476, -166.1215
912.000000, 89.482, -165.4301
925.000000, 89.492, -164.6799
938.000000, 89.502, -163.9576
950.000000, 89.516, -163.3010
962.000000, 89.538, -162.6396
975.000000, 89.570, -161.9182
988.000000, 89.606, -161.2079
1000.000000, 89.644, -160.5947
1015.000000, 89.693, -159.8928
1030.000000, 89.745, -159.2361
1044.000000, 89.802, -158.6562
1060.000000, 89.866, -158.0142
1075.000000, 89.923, -157.4112
1090.000000, 89.989, -156.8607
1106.000000, 90.064, -156.3452
1120.000000, 90.127, -155.9185
1138.000000, 90.207, -155.4240
1150.000000, 90.257, -155.1099
1172.000000, 90.348, -154.5673
1180.000000, 90.381, -154.4028
1206.000000, 90.483, -153.9531
1220.000000, 90.535, -153.7086
1241.000000, 90.608, -153.3435
1250.000000, 90.639, -153.2000
1265.000000, 90.688, -152.9664
1280.000000, 90.734, -152.7559
1315.000000, 90.825, -152.2760
1320.000000, 90.837, -152.2058
1340.000000, 90.882, -151.9285
1360.000000, 90.925, -151.6531
1380.000000, 90.967, -151.3745
1400.000000, 91.006, -151.0711
1430.000000, 91.065, -150.6383
1450.000000, 91.103, -150.3164
1475.000000, 91.149, -149.8641
1500.000000, 91.195, -149.3988
1525.000000, 91.241, -148.9384
1550.000000, 91.287, -148.4667
1575.000000, 91.337, -147.9618
1600.000000, 91.389, -147.4400
1625.000000, 91.441, -146.9175
1650.000000, 91.502, -146.4166
1675.000000, 91.568, -145.8987
1700.000000, 91.636, -145.3475
1725.000000, 91.711, -144.7917
1750.000000, 91.787, -144.2548
1775.000000, 91.867, -143.7416
1800.000000, 91.950, -143.2375
1825.000000, 92.036, -142.7114
1850.000000, 92.129, -142.2045
1875.000000, 92.228, -141.7180
1900.000000, 92.332, -141.2427
1925.000000, 92.442, -140.7860
1950.000000, 92.556, -140.3508
1975.000000, 92.675, -139.9418
2000.000000, 92.800, -139.5393
2030.000000, 92.957, -139.0872
2060.000000, 93.123, -138.7175
2090.000000, 93.294, -138.3835
2120.000000, 93.470, -138.1193
2140.000000, 93.592, -137.9782
2180.000000, 93.848, -137.7742
2200.000000, 93.978, -137.7284
2240.000000, 94.243, -137.7447
2270.000000, 94.449, -137.8514
2300.000000, 94.661, -138.0575
2330.000000, 94.876, -138.3741
2360.000000, 95.091, -138.8152
2400.000000, 95.377, -139.5851
2430.000000, 95.591, -140.3036
2470.000000, 95.866, -141.4763
2500.000000, 96.064, -142.5119
2540.000000, 96.313, -144.1140
2580.000000, 96.536, -145.9553
2620.000000, 96.727, -148.0121
2650.000000, 96.844, -149.6832
2690.000000, 96.961, -152.0417
2720.000000, 97.015, -153.8632
2760.000000, 97.043, -156.3143
2800.000000, 97.020, -158.7466
2850.000000, 96.928, -161.6691
2900.000000, 96.781, -164.3945
2950.000000, 96.589, -166.9138
3000.000000, 96.351, -169.2028
3040.000000, 96.135, -170.8475
3070.000000, 95.959, -171.9568
3110.000000, 95.709, -173.2716
3150.000000, 95.448, -174.3806
3200.000000, 95.108, -175.4707
3250.000000, 94.765, -176.2249
3300.000000, 94.427, -176.6712
3350.000000, 94.103, -176.8217
3400.000000, 93.801, -176.7361
3450.000000, 93.528, -176.4856
3500.000000, 93.285, -176.1509
3550.000000, 93.059, -175.7975
3600.000000, 92.842, -175.4310
3650.000000, 92.630, -175.0316
3700.000000, 92.422, -174.5923
3750.000000, 92.220, -174.0707
3820.000000, 91.946, -173.1788
3870.000000, 91.760, -172.4176
3950.000000, 91.489, -171.0391
4000.000000, 91.337, -170.1132
4060.000000, 91.172, -168.9435
4120.000000, 91.027, -167.7120
4180.000000, 90.906, -166.4523
4250.000000, 90.790, -164.9414
4310.000000, 90.711, -163.6598
4370.000000, 90.651, -162.4095
4440.000000, 90.601, -160.9717
4500.000000, 90.569, -159.7604
4550.000000, 90.548, -158.7680
4620.000000, 90.535, -157.3732
4680.000000, 90.536, -156.1132
4750.000000, 90.559, -154.5518
4820.000000, 90.624, -152.9034
4870.000000, 90.705, -151.7296
4940.000000, 90.872, -150.2261
5000.000000, 91.059, -149.1630
5080.000000, 91.352, -148.1869
5150.000000, 91.625, -147.8068
5220.000000, 91.894, -147.8268
5300.000000, 92.178, -148.2901
5380.000000, 92.431, -149.1122
5450.000000, 92.623, -150.0262
5520.000000, 92.791, -151.0723
5600.000000, 92.960, -152.3751
5700.000000, 93.162, -154.1882
5800.000000, 93.370, -156.4194
5900.000000, 93.565, -159.5089
6000.000000, 93.640, -163.7965
6080.000000, 93.507, -167.8145
6150.000000, 93.209, -171.2030
6220.000000, 92.759, -173.9614
6300.000000, 92.129, -175.9306
6400.000000, 91.314, -176.5232
6500.000000, 90.594, -175.4543
6600.000000, 90.035, -173.3004
6700.000000, 89.661, -170.6223
6800.000000, 89.443, -167.8602
6900.000000, 89.354, -165.1728
7000.000000, 89.384, -162.6190
7100.000000, 89.529, -160.2958
7200.000000, 89.795, -158.3235
7300.000000, 90.190, -156.8309
7400.000000, 90.722, -156.0875
7500.000000, 91.389, -156.5249
7620.000000, 92.312, -159.3760
7750.000000, 93.266, -166.0899
7880.000000, 93.871, -176.6677
8000.000000, 93.821, 171.2504
8120.000000, 93.043, 159.1588
8250.000000, 91.492, 148.6309
8380.000000, 89.497, 142.2903
8500.000000, 87.513, 140.7443
8620.000000, 85.752, 143.4105
8750.000000, 84.482, 147.1740
8850.000000, 83.652, 148.3248
9000.000000, 82.068, 151.4346
9120.000000, 80.858, 157.6044
9250.000000, 80.061, 165.5406
9380.000000, 79.645, 171.8591
9500.000000, 79.358, 176.7448
9620.000000, 79.120, -178.8579
9750.000000, 78.899, -174.4621
9880.000000, 78.730, -170.2602
10000.000000, 78.630, -166.6089
10150.000000, 78.549, -162.4172
10300.000000, 78.480, -158.4588
10440.000000, 78.439, -154.6273
10600.000000, 78.482, -150.0500
10750.000000, 78.657, -145.8537
10900.000000, 78.976, -142.0218
11060.000000, 79.468, -138.6493
11200.000000, 80.016, -136.6404
11380.000000, 80.821, -135.8217
11500.000000, 81.374, -136.5897
11720.000000, 82.260, -141.0920
11800.000000, 82.480, -143.6875
12060.000000, 82.535, -153.9922
12200.000000, 82.106, -159.2700
12410.000000, 81.017, -164.7529
12500.000000, 80.464, -165.9412
12650.000000, 79.531, -166.4170
12800.000000, 78.671, -165.3557
13150.000000, 77.015, -160.4056
13200.000000, 76.772, -159.4158
13400.000000, 75.813, -152.5811
13600.000000, 75.507, -142.0250
13800.000000, 75.894, -133.6589
14000.000000, 76.501, -127.7388
14300.000000, 77.655, -120.8156
14500.000000, 78.658, -117.2910
14750.000000, 80.238, -114.8752
15000.000000, 82.142, -116.0438
15250.000000, 84.061, -122.6718
15500.000000, 85.487, -134.1074
15750.000000, 86.354, -148.7592
16000.000000, 86.105, -165.0479
16250.000000, 84.854, -176.6646
16500.000000, 83.501, 178.0673
16750.000000, 82.593, 176.6202
17000.000000, 82.250, 176.3406
17250.000000, 82.418, 175.1147
17500.000000, 82.917, 171.2266
17750.000000, 83.415, 163.5646
18000.000000, 83.456, 152.7345
18250.000000, 82.707, 141.8045
18500.000000, 81.301, 135.4637
18750.000000, 80.185, 136.2204
19000.000000, 80.247, 136.8866
19250.000000, 80.549, 131.5613
19500.000000, 80.317, 124.3489
19750.000000, 79.745, 119.0090
20000.000000, 79.269, 116.6282
