* Measurement data measured by REW V5.31.3
* Source: Mic In (Elgato Wave:XLR), MICROPHONE (Master Volume), R, volume: 0.630
* Format: 2M Log Swept Sine, 1 sweep at -12.0 dBFS with no timing reference
* Dated: Jul 27, 2024 12:21:30 PM
* REW Settings:
*  C-weighting compensation: Off
*  Target level: 75.0 dB
* Note: ; 
* Measurement: Hisenior Mega5EST R
* Smoothing: 1/24 octave
* Frequency Step: 1/48 octave
* Start Frequency: 1.000 Hz
*
* Freq(Hz), SPL(dB), Phase(degrees)
1.000000, 56.041, -159.2687
1.015000, 56.146, -159.3695
1.030000, 56.251, -159.5100
1.044000, 56.349, -159.6785
1.060000, 56.460, -159.9167
1.075000, 56.563, -160.1859
1.090000, 56.665, -160.4995
1.106000, 56.774, -160.8766
1.120000, 56.869, -161.2295
1.138000, 56.992, -161.7047
1.150000, 57.074, -162.0340
1.172000, 57.227, -162.6633
1.180000, 57.283, -162.9005
1.206000, 57.466, -163.7023
1.220000, 57.565, -164.1539
1.241000, 57.715, -164.8578
1.250000, 57.779, -165.1695
1.265000, 57.886, -165.7024
1.280000, 57.994, -166.2525
1.315000, 58.245, -167.6057
1.320000, 58.281, -167.8072
1.340000, 58.425, -168.6347
1.360000, 58.568, -169.4975
1.380000, 58.711, -170.3972
1.400000, 58.854, -171.3356
1.430000, 59.067, -172.8202
1.450000, 59.208, -173.8635
1.475000, 59.383, -175.2238
1.500000, 59.556, -176.6260
1.525000, 59.727, -178.0574
1.550000, 59.898, -179.5141
1.575000, 60.068, 179.0052
1.600000, 60.237, 177.5009
1.625000, 60.407, 175.9724
1.650000, 60.576, 174.4182
1.675000, 60.747, 172.8362
1.700000, 60.917, 171.2235
1.725000, 61.090, 169.5767
1.750000, 61.263, 167.8918
1.775000, 61.438, 166.1644
1.800000, 61.616, 164.3898
1.825000, 61.796, 162.5643
1.850000, 61.977, 160.6899
1.875000, 62.161, 158.7779
1.900000, 62.345, 156.8398
1.925000, 62.531, 154.8849
1.950000, 62.718, 152.9207
1.975000, 62.906, 150.9528
2.000000, 63.096, 148.9855
2.030000, 63.325, 146.6295
2.060000, 63.556, 144.2811
2.090000, 63.789, 141.9404
2.120000, 64.023, 139.6057
2.140000, 64.181, 138.0509
2.180000, 64.498, 134.9387
2.200000, 64.659, 133.3780
2.240000, 64.983, 130.2460
2.270000, 65.231, 127.8986
2.300000, 65.481, 125.5655
2.330000, 65.733, 123.2557
2.360000, 65.987, 120.9757
2.400000, 66.327, 117.9888
2.430000, 66.583, 115.7906
2.470000, 66.923, 112.9152
2.500000, 67.176, 110.7973
2.540000, 67.512, 108.0182
2.580000, 67.845, 105.2773
2.620000, 68.178, 102.5641
2.650000, 68.427, 100.5521
2.690000, 68.760, 97.9115
2.720000, 69.009, 95.9684
2.760000, 69.340, 93.4334
2.800000, 69.667, 90.9650
2.850000, 70.071, 87.9734
2.900000, 70.467, 85.0797
2.950000, 70.854, 82.2651
3.000000, 71.234, 79.5035
3.040000, 71.535, 77.3337
3.070000, 71.757, 75.7343
3.110000, 72.050, 73.6438
3.150000, 72.339, 71.6051
3.200000, 72.694, 69.1331
3.250000, 73.041, 66.7462
3.300000, 73.380, 64.4365
3.350000, 73.711, 62.1817
3.400000, 74.035, 59.9699
3.450000, 74.351, 57.8073
3.500000, 74.660, 55.7014
3.550000, 74.963, 53.6581
3.600000, 75.259, 51.6808
3.650000, 75.550, 49.7690
3.700000, 75.834, 47.9111
3.750000, 76.112, 46.0929
3.820000, 76.489, 43.6123
3.870000, 76.752, 41.8918
3.950000, 77.161, 39.2365
4.000000, 77.412, 37.6406
4.060000, 77.707, 35.7851
4.120000, 77.995, 33.9811
4.180000, 78.276, 32.2234
4.250000, 78.596, 30.2318
4.310000, 78.864, 28.5764
4.370000, 79.129, 26.9692
4.440000, 79.432, 25.1515
4.500000, 79.687, 23.6364
4.550000, 79.895, 22.4011
4.620000, 80.182, 20.7107
4.680000, 80.424, 19.2958
4.750000, 80.702, 17.6823
4.820000, 80.976, 16.1069
4.870000, 81.169, 15.0040
4.940000, 81.435, 13.4882
5.000000, 81.659, 12.2123
5.080000, 81.953, 10.5397
5.150000, 82.206, 9.0997
5.220000, 82.455, 7.6813
5.300000, 82.735, 6.0858
5.380000, 83.009, 4.5154
5.450000, 83.244, 3.1588
5.520000, 83.474, 1.8157
5.600000, 83.732, 0.2954
5.700000, 84.047, -1.5808
5.800000, 84.352, -3.4276
5.900000, 84.648, -5.2478
6.000000, 84.935, -7.0488
6.080000, 85.157, -8.4724
6.150000, 85.347, -9.7014
6.220000, 85.532, -10.9139
6.300000, 85.737, -12.2837
6.400000, 85.986, -13.9758
6.500000, 86.226, -15.6366
6.600000, 86.458, -17.2581
6.700000, 86.682, -18.8463
6.800000, 86.897, -20.4045
6.900000, 87.106, -21.9246
7.000000, 87.308, -23.4025
7.100000, 87.504, -24.8444
7.200000, 87.694, -26.2517
7.300000, 87.880, -27.6207
7.400000, 88.061, -28.9512
7.500000, 88.239, -30.2476
7.620000, 88.447, -31.7621
7.750000, 88.669, -33.3539
7.880000, 88.887, -34.8989
8.000000, 89.085, -36.2922
8.120000, 89.282, -37.6602
8.250000, 89.492, -39.1152
8.380000, 89.699, -40.5506
8.500000, 89.887, -41.8649
8.620000, 90.073, -43.1696
8.750000, 90.270, -44.5743
8.850000, 90.418, -45.6514
9.000000, 90.635, -47.2617
9.120000, 90.803, -48.5409
9.250000, 90.979, -49.9174
9.380000, 91.149, -51.2831
9.500000, 91.299, -52.5269
9.620000, 91.444, -53.7520
9.750000, 91.595, -55.0582
9.880000, 91.741, -56.3354
10.000000, 91.871, -57.4862
10.150000, 92.028, -58.8887
10.300000, 92.182, -60.2490
10.440000, 92.322, -61.4818
10.600000, 92.480, -62.8553
10.750000, 92.627, -64.1141
10.900000, 92.773, -65.3517
11.060000, 92.928, -66.6606
11.200000, 93.062, -67.8005
11.380000, 93.232, -69.2667
11.500000, 93.342, -70.2480
11.720000, 93.537, -72.0505
11.800000, 93.604, -72.7065
12.060000, 93.811, -74.8271
12.200000, 93.914, -75.9505
12.410000, 94.057, -77.5974
12.500000, 94.114, -78.2830
12.650000, 94.206, -79.3962
12.800000, 94.294, -80.4691
13.150000, 94.491, -82.8080
13.200000, 94.519, -83.1254
13.400000, 94.632, -84.3595
13.600000, 94.749, -85.5554
13.800000, 94.870, -86.7311
14.000000, 94.993, -87.9072
14.300000, 95.178, -89.6960
14.500000, 95.297, -90.9120
14.750000, 95.439, -92.4485
15.000000, 95.570, -93.9861
15.250000, 95.689, -95.4995
15.500000, 95.798, -96.9695
15.750000, 95.901, -98.3870
16.000000, 96.001, -99.7524
16.250000, 96.099, -101.0770
16.500000, 96.196, -102.3733
16.750000, 96.292, -103.6530
17.000000, 96.385, -104.9213
17.250000, 96.475, -106.1774
17.500000, 96.560, -107.4162
17.750000, 96.640, -108.6315
18.000000, 96.718, -109.8202
18.250000, 96.794, -110.9830
18.500000, 96.868, -112.1242
18.750000, 96.942, -113.2499
19.000000, 97.013, -114.3650
19.250000, 97.083, -115.4714
19.500000, 97.149, -116.5675
19.750000, 97.212, -117.6499
20.000000, 97.273, -118.7145
20.299999, 97.342, -119.9658
20.600000, 97.409, -121.1901
20.900000, 97.474, -122.3921
21.200001, 97.537, -123.5771
21.400000, 97.577, -124.3586
21.799999, 97.654, -125.8986
22.000000, 97.690, -126.6546
22.400000, 97.760, -128.1353
22.700001, 97.810, -129.2207
23.000000, 97.859, -130.2898
23.299999, 97.906, -131.3463
23.600000, 97.949, -132.3880
24.000000, 98.002, -133.7398
24.299999, 98.038, -134.7133
24.700001, 98.088, -135.9532
25.000000, 98.129, -136.8542
25.400000, 98.190, -138.0578
25.799999, 98.254, -139.3064
26.200001, 98.311, -140.6099
26.500000, 98.344, -141.6017
26.900000, 98.373, -142.8927
27.200001, 98.388, -143.8072
27.600000, 98.403, -144.9357
28.000000, 98.423, -145.9761
28.500000, 98.458, -147.2157
29.000000, 98.503, -148.4602
29.500000, 98.549, -149.7465
30.000000, 98.588, -151.0636
30.400000, 98.610, -152.1107
30.700001, 98.622, -152.8746
31.100000, 98.635, -153.8508
31.500000, 98.647, -154.7805
32.000000, 98.667, -155.9065
32.500000, 98.688, -157.0255
33.000000, 98.707, -158.1382
33.500000, 98.725, -159.2289
34.000000, 98.746, -160.3152
34.500000, 98.767, -161.4371
35.000000, 98.778, -162.5868
35.500000, 98.775, -163.6880
36.000000, 98.771, -164.6812
36.500000, 98.782, -165.6138
37.000000, 98.807, -166.6019
37.500000, 98.829, -167.6993
38.200001, 98.828, -169.2687
38.700001, 98.814, -170.2730
39.500000, 98.807, -171.7055
40.000000, 98.814, -172.6053
40.599998, 98.819, -173.7224
41.200001, 98.815, -174.8265
41.799999, 98.807, -175.8903
42.500000, 98.794, -177.0889
43.099998, 98.779, -178.0711
43.700001, 98.764, -179.0010
44.400002, 98.751, 179.9556
45.000000, 98.745, 179.0581
45.500000, 98.741, 178.2908
46.200001, 98.731, 177.1891
46.799999, 98.717, 176.2467
47.500000, 98.697, 175.1832
48.200001, 98.678, 174.1507
48.700001, 98.666, 173.4224
49.400002, 98.648, 172.4270
50.000000, 98.636, 171.5988
50.799999, 98.628, 170.4634
51.500000, 98.614, 169.4037
52.200001, 98.583, 168.3677
53.000000, 98.538, 167.3312
53.799999, 98.507, 166.3893
54.500000, 98.489, 165.5322
55.200001, 98.467, 164.6296
56.000000, 98.433, 163.5968
57.000000, 98.382, 162.3687
58.000000, 98.335, 161.2103
59.000000, 98.294, 160.0435
60.000000, 98.249, 158.8563
60.799999, 98.208, 157.9418
61.500000, 98.174, 157.1714
62.200001, 98.140, 156.4141
63.000000, 98.103, 155.5598
64.000000, 98.057, 154.5082
65.000000, 98.010, 153.4711
66.000000, 97.963, 152.4487
67.000000, 97.913, 151.4373
68.000000, 97.861, 150.4523
69.000000, 97.809, 149.4990
70.000000, 97.759, 148.5631
71.000000, 97.708, 147.6329
72.000000, 97.657, 146.7083
73.000000, 97.603, 145.8064
74.000000, 97.550, 144.9441
75.000000, 97.502, 144.0958
76.199997, 97.445, 143.0414
77.500000, 97.374, 141.9380
78.800003, 97.306, 140.8738
80.000000, 97.236, 139.8737
81.199997, 97.162, 138.9391
82.500000, 97.087, 137.9451
83.800003, 97.013, 136.9399
85.000000, 96.944, 136.0267
86.199997, 96.875, 135.1547
87.500000, 96.806, 134.2563
88.500000, 96.756, 133.5575
90.000000, 96.674, 132.5042
91.199997, 96.605, 131.7014
92.500000, 96.530, 130.8549
93.800003, 96.457, 130.0153
95.000000, 96.389, 129.2307
96.199997, 96.320, 128.4660
97.500000, 96.246, 127.6691
98.800003, 96.175, 126.8870
100.000000, 96.109, 126.1675
101.500000, 96.025, 125.2856
103.000000, 95.940, 124.4364
104.400002, 95.861, 123.6701
106.000000, 95.770, 122.8116
107.500000, 95.683, 122.0300
109.000000, 95.595, 121.2667
110.599998, 95.500, 120.4667
112.000000, 95.420, 119.7855
113.800003, 95.320, 118.9302
115.000000, 95.254, 118.3855
117.199997, 95.139, 117.4624
118.000000, 95.098, 117.1451
120.599998, 94.955, 116.0934
122.000000, 94.866, 115.6159
124.099998, 94.745, 115.0029
125.000000, 94.700, 114.7437
126.500000, 94.634, 114.3223
128.000000, 94.585, 113.8974
131.500000, 94.508, 112.7179
132.000000, 94.497, 112.5328
134.000000, 94.444, 111.7595
136.000000, 94.373, 110.9206
138.000000, 94.282, 110.0631
140.000000, 94.186, 109.2625
143.000000, 94.051, 108.1203
145.000000, 93.964, 107.4185
147.500000, 93.857, 106.5914
150.000000, 93.753, 105.8019
152.500000, 93.651, 105.0338
155.000000, 93.550, 104.3022
157.500000, 93.450, 103.6181
160.000000, 93.353, 102.9767
162.500000, 93.259, 102.3567
165.000000, 93.167, 101.7427
167.500000, 93.077, 101.1473
170.000000, 92.991, 100.5817
172.500000, 92.907, 100.0113
175.000000, 92.821, 99.4547
177.500000, 92.739, 98.9312
180.000000, 92.661, 98.4338
182.500000, 92.585, 97.9431
185.000000, 92.508, 97.4687
187.500000, 92.434, 97.0107
190.000000, 92.363, 96.5637
192.500000, 92.290, 96.1239
195.000000, 92.217, 95.7119
197.500000, 92.150, 95.3143
200.000000, 92.089, 94.9171
203.000000, 92.013, 94.4471
206.000000, 91.934, 94.0029
209.000000, 91.857, 93.5718
212.000000, 91.780, 93.1743
214.000000, 91.726, 92.9357
218.000000, 91.616, 92.5050
220.000000, 91.565, 92.2813
224.000000, 91.467, 91.8352
227.000000, 91.390, 91.6414
230.000000, 91.319, 91.5468
233.000000, 91.253, 91.5366
236.000000, 91.192, 91.7040
240.000000, 91.150, 92.1959
243.000000, 91.159, 92.4797
247.000000, 91.211, 92.7521
250.000000, 91.274, 92.7556
254.000000, 91.392, 92.4034
258.000000, 91.504, 91.8592
262.000000, 91.559, 91.2102
265.000000, 91.596, 90.4071
269.000000, 91.632, 89.2301
272.000000, 91.635, 88.4805
276.000000, 91.620, 87.5872
280.000000, 91.597, 86.8112
285.000000, 91.562, 85.9068
290.000000, 91.527, 85.0749
295.000000, 91.492, 84.3492
300.000000, 91.459, 83.6944
304.000000, 91.435, 83.1886
307.000000, 91.418, 82.8101
311.000000, 91.397, 82.3294
315.000000, 91.381, 81.8766
320.000000, 91.365, 81.2893
325.000000, 91.351, 80.7020
330.000000, 91.337, 80.1216
335.000000, 91.325, 79.5635
340.000000, 91.313, 79.0208
345.000000, 91.300, 78.5012
350.000000, 91.286, 77.9871
355.000000, 91.273, 77.4576
360.000000, 91.263, 76.9566
365.000000, 91.257, 76.4783
370.000000, 91.248, 75.9860
375.000000, 91.240, 75.5027
382.000000, 91.233, 74.8669
387.000000, 91.229, 74.4381
395.000000, 91.221, 73.7302
400.000000, 91.216, 73.2896
406.000000, 91.213, 72.7691
412.000000, 91.210, 72.2596
418.000000, 91.206, 71.7522
425.000000, 91.205, 71.1479
431.000000, 91.202, 70.6384
437.000000, 91.199, 70.1774
444.000000, 91.194, 69.6088
450.000000, 91.187, 69.1459
455.000000, 91.182, 68.7932
462.000000, 91.181, 68.2866
468.000000, 91.179, 67.8361
475.000000, 91.172, 67.3157
482.000000, 91.168, 66.8189
487.000000, 91.164, 66.4807
494.000000, 91.155, 66.0172
500.000000, 91.144, 65.6434
508.000000, 91.127, 65.1485
515.000000, 91.119, 64.7211
522.000000, 91.110, 64.3063
530.000000, 91.101, 63.8514
538.000000, 91.089, 63.4363
545.000000, 91.078, 63.1081
552.000000, 91.068, 62.7646
560.000000, 91.058, 62.4173
570.000000, 91.046, 62.0176
580.000000, 91.030, 61.5914
590.000000, 91.014, 61.2141
600.000000, 90.999, 60.8608
608.000000, 90.988, 60.5494
615.000000, 90.979, 60.2990
622.000000, 90.971, 60.0815
630.000000, 90.958, 59.8509
640.000000, 90.947, 59.5959
650.000000, 90.938, 59.3723
660.000000, 90.929, 59.1660
670.000000, 90.923, 58.9308
680.000000, 90.917, 58.7239
690.000000, 90.910, 58.5563
700.000000, 90.902, 58.4181
710.000000, 90.894, 58.2751
720.000000, 90.885, 58.1176
730.000000, 90.875, 58.0053
740.000000, 90.864, 57.8996
750.000000, 90.856, 57.7945
762.000000, 90.850, 57.7106
775.000000, 90.844, 57.6528
788.000000, 90.832, 57.6297
800.000000, 90.822, 57.6311
812.000000, 90.813, 57.6708
825.000000, 90.807, 57.7482
838.000000, 90.806, 57.8836
850.000000, 90.809, 58.0250
862.000000, 90.810, 58.1674
875.000000, 90.808, 58.3477
885.000000, 90.805, 58.5045
900.000000, 90.810, 58.8200
912.000000, 90.821, 59.1667
925.000000, 90.835, 59.6082
938.000000, 90.858, 60.0497
950.000000, 90.889, 60.4207
962.000000, 90.931, 60.8389
975.000000, 90.995, 61.3177
988.000000, 91.072, 61.7856
1000.000000, 91.150, 62.1627
1015.000000, 91.259, 62.5253
1030.000000, 91.377, 62.8077
1044.000000, 91.487, 62.9861
1060.000000, 91.608, 63.1163
1075.000000, 91.721, 63.1873
1090.000000, 91.831, 63.2117
1106.000000, 91.944, 63.1663
1120.000000, 92.041, 63.1114
1138.000000, 92.162, 63.0028
1150.000000, 92.242, 62.8973
1172.000000, 92.384, 62.6791
1180.000000, 92.430, 62.5918
1206.000000, 92.573, 62.2705
1220.000000, 92.646, 62.0754
1241.000000, 92.750, 61.7617
1250.000000, 92.794, 61.6302
1265.000000, 92.863, 61.3986
1280.000000, 92.923, 61.1619
1315.000000, 93.052, 60.6418
1320.000000, 93.070, 60.5694
1340.000000, 93.140, 60.2894
1360.000000, 93.200, 60.0164
1380.000000, 93.255, 59.7633
1400.000000, 93.307, 59.5360
1430.000000, 93.381, 59.2287
1450.000000, 93.428, 59.0437
1475.000000, 93.481, 58.8453
1500.000000, 93.529, 58.6889
1525.000000, 93.578, 58.5593
1550.000000, 93.630, 58.4763
1575.000000, 93.679, 58.3994
1600.000000, 93.727, 58.3550
1625.000000, 93.778, 58.3693
1650.000000, 93.832, 58.4017
1675.000000, 93.888, 58.4452
1700.000000, 93.941, 58.4990
1725.000000, 93.996, 58.5643
1750.000000, 94.056, 58.6413
1775.000000, 94.117, 58.7395
1800.000000, 94.181, 58.8683
1825.000000, 94.247, 59.0064
1850.000000, 94.317, 59.1404
1875.000000, 94.392, 59.2620
1900.000000, 94.471, 59.4022
1925.000000, 94.552, 59.5507
1950.000000, 94.634, 59.6846
1975.000000, 94.719, 59.8166
2000.000000, 94.806, 59.9507
2030.000000, 94.917, 60.0964
2060.000000, 95.033, 60.2399
2090.000000, 95.156, 60.3680
2120.000000, 95.285, 60.4589
2140.000000, 95.373, 60.5010
2180.000000, 95.554, 60.5589
2200.000000, 95.647, 60.5756
2240.000000, 95.839, 60.5687
2270.000000, 95.987, 60.5165
2300.000000, 96.140, 60.4263
2330.000000, 96.298, 60.2864
2360.000000, 96.458, 60.0889
2400.000000, 96.675, 59.7583
2430.000000, 96.842, 59.4495
2470.000000, 97.068, 58.9364
2500.000000, 97.238, 58.4758
2540.000000, 97.467, 57.7562
2580.000000, 97.694, 56.9073
2620.000000, 97.917, 55.9264
2650.000000, 98.082, 55.1005
2690.000000, 98.295, 53.8700
2720.000000, 98.448, 52.8445
2760.000000, 98.639, 51.3542
2800.000000, 98.814, 49.7320
2850.000000, 99.006, 47.5312
2900.000000, 99.160, 45.1644
2950.000000, 99.276, 42.6698
3000.000000, 99.345, 40.0791
3040.000000, 99.367, 37.9761
3070.000000, 99.362, 36.3978
3110.000000, 99.330, 34.3185
3150.000000, 99.269, 32.2957
3200.000000, 99.156, 29.8842
3250.000000, 99.007, 27.6359
3300.000000, 98.825, 25.5703
3350.000000, 98.617, 23.7008
3400.000000, 98.390, 22.0508
3450.000000, 98.149, 20.6249
3500.000000, 97.899, 19.4119
3550.000000, 97.645, 18.4123
3600.000000, 97.390, 17.6208
3650.000000, 97.138, 17.0143
3700.000000, 96.893, 16.5829
3750.000000, 96.659, 16.2993
3820.000000, 96.346, 16.1519
3870.000000, 96.134, 16.1791
3950.000000, 95.825, 16.3969
4000.000000, 95.651, 16.6505
4060.000000, 95.460, 17.0441
4120.000000, 95.290, 17.5158
4180.000000, 95.139, 18.0499
4250.000000, 94.987, 18.7337
4310.000000, 94.882, 19.3532
4370.000000, 94.799, 19.9716
4440.000000, 94.729, 20.6678
4500.000000, 94.685, 21.2142
4550.000000, 94.661, 21.6326
4620.000000, 94.646, 22.1431
4680.000000, 94.643, 22.5100
4750.000000, 94.645, 22.8660
4820.000000, 94.653, 23.1526
4870.000000, 94.662, 23.3194
4940.000000, 94.679, 23.5261
5000.000000, 94.699, 23.6871
5080.000000, 94.738, 23.8966
5150.000000, 94.785, 24.0581
5220.000000, 94.848, 24.1851
5300.000000, 94.943, 24.2480
5380.000000, 95.059, 24.1675
5450.000000, 95.178, 23.9429
5520.000000, 95.306, 23.5282
5600.000000, 95.455, 22.7936
5700.000000, 95.630, 21.4958
5800.000000, 95.771, 19.8283
5900.000000, 95.862, 17.8843
6000.000000, 95.894, 15.7919
6080.000000, 95.875, 14.1155
6150.000000, 95.827, 12.7125
6220.000000, 95.755, 11.4075
6300.000000, 95.651, 10.0767
6400.000000, 95.503, 8.6924
6500.000000, 95.352, 7.6512
6600.000000, 95.213, 6.9427
6700.000000, 95.103, 6.5134
6800.000000, 95.033, 6.3197
6900.000000, 95.016, 6.2854
7000.000000, 95.057, 6.3348
7100.000000, 95.164, 6.4258
7200.000000, 95.363, 6.4640
7300.000000, 95.665, 6.1514
7400.000000, 96.048, 5.1901
7500.000000, 96.480, 3.4757
7620.000000, 97.043, 0.2704
7750.000000, 97.644, -5.0189
7880.000000, 98.098, -12.4128
8000.000000, 98.237, -20.7531
8120.000000, 98.008, -29.6769
8250.000000, 97.332, -38.7365
8380.000000, 96.317, -46.0681
8500.000000, 95.215, -50.8667
8620.000000, 94.069, -53.8403
8750.000000, 92.868, -55.3376
8850.000000, 92.002, -55.5228
9000.000000, 90.825, -54.6224
9120.000000, 89.991, -53.1454
9250.000000, 89.195, -50.9737
9380.000000, 88.504, -48.3694
9500.000000, 87.954, -45.6705
9620.000000, 87.485, -42.7860
9750.000000, 87.064, -39.5328
9880.000000, 86.727, -36.2009
10000.000000, 86.487, -33.1075
10150.000000, 86.275, -29.2553
10300.000000, 86.155, -25.4726
10440.000000, 86.120, -22.0188
10600.000000, 86.176, -18.2440
10750.000000, 86.324, -15.0002
10900.000000, 86.554, -12.1725
11060.000000, 86.876, -9.6925
11200.000000, 87.211, -8.0538
11380.000000, 87.696, -6.8037
11500.000000, 88.037, -6.6084
11720.000000, 88.636, -7.7253
11800.000000, 88.829, -8.6307
12060.000000, 89.257, -13.3082
12200.000000, 89.293, -16.6366
12410.000000, 89.011, -21.8151
12500.000000, 88.769, -23.8036
12650.000000, 88.234, -26.4518
12800.000000, 87.583, -28.0475
13150.000000, 85.933, -27.3987
13200.000000, 85.707, -26.8590
13400.000000, 84.871, -23.8353
13600.000000, 84.168, -19.7263
13800.000000, 83.617, -14.8533
14000.000000, 83.225, -9.4960
14300.000000, 82.931, -0.9584
14500.000000, 82.942, 4.9195
14750.000000, 83.233, 12.2505
15000.000000, 83.865, 18.9967
15250.000000, 84.905, 24.3746
15500.000000, 86.407, 26.9680
15750.000000, 88.274, 24.1589
16000.000000, 89.935, 13.3422
16250.000000, 90.437, -4.1775
16500.000000, 89.282, -21.6588
16750.000000, 86.951, -32.6760
17000.000000, 84.320, -36.1268
17250.000000, 81.946, -34.4986
17500.000000, 79.929, -30.2814
17750.000000, 78.161, -24.5049
18000.000000, 76.584, -17.0695
18250.000000, 75.267, -7.8528
18500.000000, 74.320, 2.4435
18750.000000, 73.739, 12.6282
19000.000000, 73.453, 21.9947
19250.000000, 73.381, 30.2521
19500.000000, 73.453, 37.2060
19750.000000, 73.591, 42.7712
20000.000000, 73.735, 47.1521
20300.000000, 73.811, 51.0743
20600.000000, 73.685, 54.8806
20900.000000, 73.616, 60.3997
21200.000000, 73.924, 65.3412
21400.000000, 74.177, 66.4846
21800.000000, 73.976, 64.4151
22000.000000, 73.319, 62.7664
22400.000000, 70.729, 60.5038
22700.000000, 67.591, 60.5222
23000.000000, 63.357, 62.2985
23300.000000, 57.999, 65.6391
23600.000000, 51.533, 70.0052
24000.000000, 42.580, 76.2920
