* Measurement data measured by REW V5.31.3
* Source: Mic In (Elgato Wave:XLR), MICROPHONE (Master Volume), R, volume: 0.660
* Format: 2M Log Swept Sine, 1 sweep at -12.0 dBFS with no timing reference
* Dated: Aug 8, 2024 11:17:04 AM
* REW Settings:
*  C-weighting compensation: Off
*  Target level: 75.0 dB
* Note: ; 
* Measurement: Sennheiser IE600 R
* Smoothing: 1/24 octave
* Frequency Step: 1/48 octave
* Start Frequency: 1.000 Hz
*
* Freq(Hz), SPL(dB), Phase(degrees)
1.000000, 58.013, 89.0490
1.015000, 58.131, 89.0563
1.030000, 58.250, 89.0757
1.044000, 58.364, 89.1046
1.060000, 58.497, 89.1506
1.075000, 58.624, 89.2062
1.090000, 58.755, 89.2742
1.106000, 58.897, 89.3630
1.120000, 59.023, 89.4582
1.138000, 59.184, 89.6049
1.150000, 59.292, 89.7161
1.172000, 59.490, 89.9424
1.180000, 59.562, 90.0307
1.206000, 59.798, 90.3333
1.220000, 59.925, 90.5032
1.241000, 60.116, 90.7622
1.250000, 60.199, 90.8736
1.265000, 60.337, 91.0578
1.280000, 60.475, 91.2389
1.315000, 60.802, 91.6388
1.320000, 60.849, 91.6924
1.340000, 61.039, 91.8957
1.360000, 61.230, 92.0786
1.380000, 61.423, 92.2380
1.400000, 61.619, 92.3709
1.430000, 61.917, 92.5158
1.450000, 62.120, 92.5748
1.475000, 62.377, 92.6212
1.500000, 62.639, 92.6783
1.525000, 62.907, 92.7563
1.550000, 63.180, 92.8437
1.575000, 63.456, 92.9274
1.600000, 63.736, 92.9960
1.625000, 64.019, 93.0394
1.650000, 64.303, 93.0486
1.675000, 64.589, 93.0163
1.700000, 64.875, 92.9359
1.725000, 65.161, 92.8022
1.750000, 65.447, 92.6106
1.775000, 65.730, 92.3577
1.800000, 66.011, 92.0416
1.825000, 66.290, 91.6665
1.850000, 66.568, 91.2574
1.875000, 66.846, 90.8459
1.900000, 67.124, 90.4376
1.925000, 67.403, 90.0269
1.950000, 67.682, 89.6071
1.975000, 67.960, 89.1722
2.000000, 68.238, 88.7168
2.030000, 68.570, 88.1365
2.060000, 68.899, 87.5127
2.090000, 69.225, 86.8391
2.120000, 69.548, 86.1105
2.140000, 69.760, 85.5920
2.180000, 70.179, 84.4740
2.200000, 70.385, 83.8795
2.240000, 70.792, 82.6606
2.270000, 71.093, 81.7404
2.300000, 71.391, 80.8163
2.330000, 71.686, 79.8851
2.360000, 71.977, 78.9438
2.400000, 72.360, 77.6667
2.430000, 72.643, 76.6880
2.470000, 73.015, 75.3485
2.500000, 73.289, 74.3137
2.540000, 73.648, 72.8882
2.580000, 74.000, 71.4138
2.620000, 74.345, 69.9122
2.650000, 74.599, 68.7787
2.690000, 74.931, 67.2626
2.720000, 75.176, 66.1235
2.760000, 75.497, 64.6026
2.800000, 75.812, 63.0784
2.850000, 76.196, 61.1646
2.900000, 76.571, 59.2343
2.950000, 76.936, 57.2783
3.000000, 77.291, 55.2954
3.040000, 77.567, 53.6997
3.070000, 77.770, 52.5030
3.110000, 78.036, 50.9129
3.150000, 78.296, 49.3333
3.200000, 78.613, 47.3777
3.250000, 78.921, 45.4447
3.300000, 79.221, 43.5276
3.350000, 79.513, 41.6069
3.400000, 79.795, 39.6777
3.450000, 80.069, 37.7541
3.500000, 80.334, 35.8514
3.550000, 80.592, 33.9816
3.600000, 80.842, 32.1530
3.650000, 81.086, 30.3672
3.700000, 81.323, 28.6077
3.750000, 81.552, 26.8549
3.820000, 81.860, 24.4212
3.870000, 82.072, 22.7149
3.950000, 82.399, 20.0733
4.000000, 82.597, 18.4902
4.060000, 82.828, 16.6531
4.120000, 83.051, 14.8561
4.180000, 83.265, 13.0940
4.250000, 83.507, 11.0978
4.310000, 83.710, 9.4533
4.370000, 83.909, 7.8817
4.440000, 84.138, 6.1378
4.500000, 84.328, 4.7027
4.550000, 84.483, 3.5434
4.620000, 84.698, 1.9759
4.680000, 84.881, 0.6862
4.750000, 85.096, -0.7511
4.820000, 85.312, -2.1116
4.870000, 85.465, -3.0392
4.940000, 85.680, -4.2884
5.000000, 85.866, -5.3244
5.080000, 86.116, -6.6705
5.150000, 86.338, -7.8174
5.220000, 86.565, -8.9229
5.300000, 86.827, -10.1431
5.380000, 87.092, -11.3461
5.450000, 87.326, -12.4069
5.520000, 87.561, -13.4809
5.600000, 87.833, -14.7078
5.700000, 88.175, -16.2416
5.800000, 88.515, -17.8082
5.900000, 88.848, -19.4335
6.000000, 89.177, -21.1042
6.080000, 89.436, -22.4625
6.150000, 89.656, -23.6665
6.220000, 89.870, -24.8882
6.300000, 90.106, -26.3119
6.400000, 90.390, -28.1248
6.500000, 90.659, -29.9459
6.600000, 90.912, -31.7571
6.700000, 91.148, -33.5735
6.800000, 91.368, -35.3904
6.900000, 91.573, -37.1715
7.000000, 91.762, -38.9002
7.100000, 91.936, -40.5945
7.200000, 92.096, -42.2472
7.300000, 92.245, -43.8319
7.400000, 92.385, -45.3417
7.500000, 92.515, -46.7902
7.620000, 92.663, -48.4489
7.750000, 92.818, -50.1356
7.880000, 92.969, -51.7164
8.000000, 93.107, -53.1106
8.120000, 93.247, -54.4577
8.250000, 93.402, -55.8675
8.380000, 93.559, -57.2629
8.500000, 93.705, -58.5646
8.620000, 93.853, -59.8789
8.750000, 94.009, -61.3309
8.850000, 94.126, -62.4805
9.000000, 94.292, -64.2544
9.120000, 94.415, -65.6993
9.250000, 94.534, -67.2887
9.380000, 94.638, -68.8964
9.500000, 94.721, -70.3624
9.620000, 94.789, -71.7986
9.750000, 94.848, -73.3171
9.880000, 94.895, -74.7608
10.000000, 94.928, -76.0099
10.150000, 94.960, -77.4617
10.300000, 94.991, -78.7733
10.440000, 95.022, -79.8666
10.600000, 95.067, -80.9978
10.750000, 95.125, -81.9643
10.900000, 95.201, -82.8731
11.060000, 95.302, -83.8472
11.200000, 95.408, -84.7230
11.380000, 95.558, -85.9376
11.500000, 95.665, -86.8216
11.720000, 95.862, -88.5892
11.800000, 95.931, -89.2803
12.060000, 96.137, -91.6526
12.200000, 96.231, -92.9694
12.410000, 96.350, -94.9403
12.500000, 96.394, -95.7592
12.650000, 96.457, -97.0789
12.800000, 96.512, -98.3236
13.150000, 96.636, -100.8778
13.200000, 96.656, -101.2061
13.400000, 96.742, -102.4418
13.600000, 96.844, -103.6024
13.800000, 96.965, -104.7364
14.000000, 97.098, -105.8962
14.300000, 97.309, -107.7392
14.500000, 97.446, -109.0466
14.750000, 97.605, -110.7388
15.000000, 97.745, -112.4545
15.250000, 97.865, -114.1462
15.500000, 97.968, -115.7897
15.750000, 98.056, -117.3793
16.000000, 98.131, -118.9213
16.250000, 98.188, -120.4166
16.500000, 98.224, -121.8483
16.750000, 98.238, -123.1779
17.000000, 98.231, -124.3512
17.250000, 98.211, -125.3251
17.500000, 98.192, -126.0824
17.750000, 98.189, -126.6569
18.000000, 98.211, -127.1273
18.250000, 98.263, -127.6105
18.500000, 98.337, -128.2096
18.750000, 98.419, -128.9665
19.000000, 98.494, -129.8976
19.250000, 98.548, -130.9559
19.500000, 98.576, -132.0623
19.750000, 98.581, -133.1389
20.000000, 98.571, -134.1261
20.299999, 98.556, -135.1703
20.600000, 98.552, -136.1016
20.900000, 98.568, -137.0081
21.200001, 98.600, -137.9759
21.400000, 98.625, -138.6773
21.799999, 98.668, -140.2000
22.000000, 98.683, -140.9951
22.400000, 98.699, -142.5777
22.700001, 98.704, -143.7206
23.000000, 98.707, -144.8168
23.299999, 98.710, -145.8722
23.600000, 98.713, -146.8904
24.000000, 98.714, -148.1790
24.299999, 98.714, -149.0820
24.700001, 98.717, -150.2033
25.000000, 98.724, -151.0036
25.400000, 98.735, -152.0564
25.799999, 98.740, -153.1051
26.200001, 98.729, -154.1083
26.500000, 98.712, -154.7892
26.900000, 98.684, -155.5673
27.200001, 98.668, -156.0634
27.600000, 98.661, -156.6699
28.000000, 98.671, -157.3067
28.500000, 98.694, -158.2691
29.000000, 98.707, -159.4692
29.500000, 98.684, -160.8391
30.000000, 98.615, -162.1915
30.400000, 98.534, -163.1076
30.700001, 98.473, -163.6504
31.100000, 98.414, -164.2147
31.500000, 98.394, -164.7340
32.000000, 98.418, -165.6037
32.500000, 98.444, -166.8617
33.000000, 98.420, -168.3107
33.500000, 98.342, -169.5593
34.000000, 98.260, -170.3853
34.500000, 98.227, -170.9365
35.000000, 98.245, -171.5640
35.500000, 98.269, -172.4446
36.000000, 98.258, -173.4484
36.500000, 98.208, -174.3363
37.000000, 98.147, -175.0124
37.500000, 98.091, -175.5471
38.200001, 98.013, -176.1615
38.700001, 97.962, -176.4698
39.500000, 97.935, -176.9783
40.000000, 97.935, -177.5972
40.599998, 97.890, -178.6081
41.200001, 97.789, -179.5163
41.799999, 97.688, 179.8188
42.500000, 97.595, 179.0608
43.099998, 97.508, 178.4624
43.700001, 97.447, 178.0721
44.400002, 97.463, 177.3875
45.000000, 97.462, 176.2386
45.500000, 97.387, 175.2521
46.200001, 97.247, 174.5171
46.799999, 97.194, 174.1643
47.500000, 97.137, 173.4786
48.200001, 97.013, 173.1832
48.700001, 96.971, 173.3918
49.400002, 97.021, 173.3825
50.000000, 97.033, 172.8096
50.799999, 96.950, 172.4125
51.500000, 96.955, 172.3957
52.200001, 96.982, 171.7173
53.000000, 96.868, 170.8987
53.799999, 96.767, 170.9804
54.500000, 96.786, 170.9496
55.200001, 96.808, 170.4244
56.000000, 96.811, 169.5268
57.000000, 96.747, 167.8364
58.000000, 96.489, 166.6149
59.000000, 96.297, 166.9041
60.000000, 96.308, 166.9240
60.799999, 96.313, 166.2538
61.500000, 96.273, 165.6270
62.200001, 96.223, 165.1177
63.000000, 96.160, 164.5859
64.000000, 96.061, 164.0863
65.000000, 95.973, 163.8809
66.000000, 95.921, 163.7277
67.000000, 95.886, 163.3806
68.000000, 95.834, 162.9007
69.000000, 95.775, 162.4119
70.000000, 95.705, 161.8831
71.000000, 95.630, 161.4637
72.000000, 95.573, 161.0647
73.000000, 95.510, 160.5746
74.000000, 95.435, 160.1495
75.000000, 95.361, 159.7552
76.199997, 95.255, 159.2821
77.500000, 95.139, 158.9522
78.800003, 95.039, 158.6341
80.000000, 94.956, 158.3514
81.199997, 94.878, 158.0208
82.500000, 94.785, 157.6951
83.800003, 94.692, 157.4170
85.000000, 94.601, 157.1743
86.199997, 94.508, 156.9604
87.500000, 94.407, 156.7486
88.500000, 94.331, 156.6288
90.000000, 94.225, 156.4617
91.199997, 94.140, 156.3868
92.500000, 94.063, 156.3048
93.800003, 93.980, 156.1340
95.000000, 93.898, 155.9853
96.199997, 93.816, 155.8459
97.500000, 93.725, 155.6989
98.800003, 93.637, 155.6288
100.000000, 93.569, 155.5441
101.500000, 93.479, 155.3712
103.000000, 93.386, 155.1934
104.400002, 93.297, 155.0722
106.000000, 93.196, 154.9864
107.500000, 93.102, 155.0033
109.000000, 93.010, 155.0238
110.599998, 92.898, 155.0380
112.000000, 92.799, 155.0652
113.800003, 92.666, 155.0704
115.000000, 92.576, 155.1734
117.199997, 92.424, 155.4502
118.000000, 92.364, 155.5822
120.599998, 92.163, 156.3450
122.000000, 92.076, 156.9827
124.099998, 91.989, 158.0926
125.000000, 91.971, 158.7057
126.500000, 92.000, 159.8380
128.000000, 92.110, 160.7062
131.500000, 92.443, 160.1970
132.000000, 92.467, 159.8936
134.000000, 92.482, 158.8414
136.000000, 92.450, 158.2079
138.000000, 92.381, 157.6468
140.000000, 92.280, 157.1099
143.000000, 92.111, 156.5114
145.000000, 91.996, 156.3007
147.500000, 91.857, 156.2485
150.000000, 91.726, 156.0966
152.500000, 91.603, 156.0104
155.000000, 91.487, 156.2328
157.500000, 91.371, 156.7246
160.000000, 91.275, 157.3891
162.500000, 91.229, 158.0494
165.000000, 91.227, 158.6654
167.500000, 91.256, 159.0079
170.000000, 91.272, 158.9635
172.500000, 91.246, 158.4465
175.000000, 91.179, 158.2605
177.500000, 91.099, 157.9269
180.000000, 91.031, 157.8694
182.500000, 90.960, 157.5114
185.000000, 90.848, 157.6127
187.500000, 90.773, 157.8164
190.000000, 90.696, 157.7626
192.500000, 90.607, 157.8251
195.000000, 90.526, 158.0198
197.500000, 90.448, 158.2430
200.000000, 90.378, 158.5143
203.000000, 90.313, 158.8228
206.000000, 90.249, 158.9955
209.000000, 90.181, 159.1300
212.000000, 90.111, 159.2895
214.000000, 90.055, 159.4516
218.000000, 89.912, 159.9428
220.000000, 89.836, 160.1149
224.000000, 89.752, 160.1070
227.000000, 89.737, 160.3173
230.000000, 89.669, 160.9286
233.000000, 89.554, 161.4207
236.000000, 89.488, 161.6956
240.000000, 89.461, 162.3561
243.000000, 89.422, 162.8890
247.000000, 89.395, 163.4196
250.000000, 89.398, 163.8152
254.000000, 89.397, 164.1563
258.000000, 89.372, 164.4406
262.000000, 89.307, 164.5288
265.000000, 89.259, 164.5269
269.000000, 89.213, 164.6646
272.000000, 89.182, 164.8325
276.000000, 89.134, 165.0869
280.000000, 89.077, 165.3560
285.000000, 89.009, 165.6552
290.000000, 88.940, 166.0031
295.000000, 88.869, 166.4412
300.000000, 88.797, 166.8757
304.000000, 88.747, 167.2150
307.000000, 88.715, 167.4689
311.000000, 88.672, 167.7897
315.000000, 88.628, 168.0977
320.000000, 88.580, 168.5302
325.000000, 88.539, 168.9745
330.000000, 88.490, 169.3568
335.000000, 88.446, 169.7066
340.000000, 88.411, 170.0993
345.000000, 88.371, 170.5178
350.000000, 88.330, 170.9386
355.000000, 88.288, 171.3182
360.000000, 88.246, 171.6976
365.000000, 88.206, 172.0756
370.000000, 88.168, 172.4827
375.000000, 88.126, 172.9084
382.000000, 88.078, 173.4625
387.000000, 88.052, 173.8458
395.000000, 87.996, 174.4025
400.000000, 87.957, 174.7860
406.000000, 87.920, 175.3235
412.000000, 87.892, 175.8483
418.000000, 87.855, 176.2617
425.000000, 87.815, 176.7441
431.000000, 87.785, 177.2394
437.000000, 87.755, 177.7520
444.000000, 87.721, 178.3047
450.000000, 87.697, 178.7641
455.000000, 87.681, 179.1373
462.000000, 87.660, 179.6666
468.000000, 87.641, -179.8898
475.000000, 87.619, -179.4118
482.000000, 87.594, -178.8918
487.000000, 87.575, -178.4987
494.000000, 87.551, -177.9415
500.000000, 87.532, -177.5043
508.000000, 87.512, -176.9180
515.000000, 87.491, -176.3801
522.000000, 87.470, -175.8672
530.000000, 87.446, -175.2895
538.000000, 87.432, -174.6991
545.000000, 87.423, -174.2108
552.000000, 87.411, -173.7469
560.000000, 87.396, -173.1979
570.000000, 87.380, -172.4898
580.000000, 87.361, -171.7205
590.000000, 87.342, -170.9938
600.000000, 87.333, -170.3187
608.000000, 87.328, -169.7920
615.000000, 87.323, -169.2825
622.000000, 87.320, -168.7505
630.000000, 87.311, -168.1499
640.000000, 87.309, -167.4584
650.000000, 87.316, -166.8123
660.000000, 87.319, -166.1685
670.000000, 87.314, -165.4067
680.000000, 87.316, -164.6567
690.000000, 87.321, -164.0285
700.000000, 87.329, -163.3949
710.000000, 87.333, -162.6730
720.000000, 87.335, -161.9258
730.000000, 87.343, -161.2402
740.000000, 87.363, -160.5941
750.000000, 87.386, -159.9048
762.000000, 87.405, -159.0068
775.000000, 87.429, -158.1054
788.000000, 87.461, -157.2278
800.000000, 87.492, -156.4226
812.000000, 87.526, -155.6107
825.000000, 87.571, -154.7540
838.000000, 87.614, -153.8982
850.000000, 87.654, -153.0956
862.000000, 87.698, -152.2977
875.000000, 87.755, -151.4708
885.000000, 87.802, -150.8652
900.000000, 87.877, -149.9956
912.000000, 87.937, -149.2679
925.000000, 88.003, -148.5226
938.000000, 88.067, -147.8015
950.000000, 88.131, -147.1219
962.000000, 88.203, -146.4377
975.000000, 88.276, -145.7297
988.000000, 88.346, -145.0339
1000.000000, 88.420, -144.3816
1015.000000, 88.521, -143.5475
1030.000000, 88.630, -142.7514
1044.000000, 88.737, -142.0219
1060.000000, 88.867, -141.2994
1075.000000, 88.993, -140.6958
1090.000000, 89.122, -140.1412
1106.000000, 89.261, -139.6200
1120.000000, 89.380, -139.2023
1138.000000, 89.532, -138.7510
1150.000000, 89.632, -138.4839
1172.000000, 89.806, -138.0323
1180.000000, 89.866, -137.8943
1206.000000, 90.056, -137.5074
1220.000000, 90.159, -137.3210
1241.000000, 90.305, -137.0858
1250.000000, 90.365, -136.9968
1265.000000, 90.462, -136.8590
1280.000000, 90.555, -136.7431
1315.000000, 90.755, -136.5186
1320.000000, 90.780, -136.4955
1340.000000, 90.874, -136.3888
1360.000000, 90.966, -136.2360
1380.000000, 91.055, -136.0486
1400.000000, 91.137, -135.8413
1430.000000, 91.249, -135.4447
1450.000000, 91.321, -135.0815
1475.000000, 91.416, -134.4742
1500.000000, 91.539, -133.6497
1525.000000, 91.720, -132.7203
1550.000000, 91.967, -131.9565
1575.000000, 92.257, -131.6783
1600.000000, 92.535, -131.9761
1625.000000, 92.762, -132.5726
1650.000000, 92.929, -133.2540
1675.000000, 93.056, -133.8974
1700.000000, 93.163, -134.4505
1725.000000, 93.263, -134.9194
1750.000000, 93.359, -135.3448
1775.000000, 93.447, -135.7082
1800.000000, 93.527, -136.0004
1825.000000, 93.601, -136.2459
1850.000000, 93.677, -136.4760
1875.000000, 93.757, -136.6674
1900.000000, 93.836, -136.7845
1925.000000, 93.917, -136.8170
1950.000000, 94.012, -136.7763
1975.000000, 94.131, -136.7504
2000.000000, 94.274, -136.8321
2030.000000, 94.465, -137.1864
2060.000000, 94.649, -137.8166
2090.000000, 94.806, -138.6404
2120.000000, 94.931, -139.5485
2140.000000, 94.999, -140.1551
2180.000000, 95.115, -141.2635
2200.000000, 95.171, -141.7611
2240.000000, 95.291, -142.7701
2270.000000, 95.388, -143.6373
2300.000000, 95.476, -144.6340
2330.000000, 95.542, -145.7314
2360.000000, 95.581, -146.8791
2400.000000, 95.598, -148.4046
2430.000000, 95.589, -149.4828
2470.000000, 95.550, -150.8048
2500.000000, 95.504, -151.7095
2540.000000, 95.433, -152.7775
2580.000000, 95.357, -153.6971
2620.000000, 95.279, -154.4793
2650.000000, 95.222, -154.9926
2690.000000, 95.150, -155.6514
2720.000000, 95.097, -156.1426
2760.000000, 95.028, -156.7750
2800.000000, 94.962, -157.3878
2850.000000, 94.874, -158.1731
2900.000000, 94.771, -158.9882
2950.000000, 94.646, -159.8123
3000.000000, 94.496, -160.5257
3040.000000, 94.364, -160.9783
3070.000000, 94.261, -161.2555
3110.000000, 94.121, -161.5388
3150.000000, 93.977, -161.7182
3200.000000, 93.796, -161.7695
3250.000000, 93.618, -161.6772
3300.000000, 93.446, -161.4709
3350.000000, 93.287, -161.1405
3400.000000, 93.141, -160.6937
3450.000000, 93.011, -160.1675
3500.000000, 92.894, -159.5738
3550.000000, 92.791, -158.9523
3600.000000, 92.707, -158.3521
3650.000000, 92.635, -157.7677
3700.000000, 92.565, -157.2043
3750.000000, 92.497, -156.6559
3820.000000, 92.405, -155.8522
3870.000000, 92.344, -155.2466
3950.000000, 92.260, -154.2289
4000.000000, 92.215, -153.5562
4060.000000, 92.170, -152.7411
4120.000000, 92.135, -151.9207
4180.000000, 92.110, -151.0767
4250.000000, 92.098, -150.0884
4310.000000, 92.102, -149.2621
4370.000000, 92.115, -148.4719
4440.000000, 92.142, -147.5883
4500.000000, 92.179, -146.8737
4550.000000, 92.217, -146.3146
4620.000000, 92.283, -145.6350
4680.000000, 92.346, -145.1440
4750.000000, 92.426, -144.6862
4820.000000, 92.509, -144.3758
4870.000000, 92.570, -144.2337
4940.000000, 92.648, -144.1394
5000.000000, 92.706, -144.1699
5080.000000, 92.772, -144.3890
5150.000000, 92.814, -144.7755
5220.000000, 92.828, -145.3058
5300.000000, 92.792, -146.0515
5380.000000, 92.690, -146.8512
5450.000000, 92.543, -147.4961
5520.000000, 92.332, -147.9794
5600.000000, 92.010, -148.1566
5700.000000, 91.496, -147.3945
5800.000000, 90.908, -144.9524
5900.000000, 90.378, -140.2845
6000.000000, 90.105, -133.3075
6080.000000, 90.211, -126.7019
6150.000000, 90.586, -120.9434
6220.000000, 91.207, -115.8826
6300.000000, 92.145, -111.5660
6400.000000, 93.501, -108.8339
6500.000000, 94.891, -109.0848
6600.000000, 96.172, -112.0140
6700.000000, 97.232, -117.1532
6800.000000, 97.987, -123.8334
6900.000000, 98.399, -131.2310
7000.000000, 98.482, -138.5011
7100.000000, 98.293, -144.9707
7200.000000, 97.920, -150.2895
7300.000000, 97.451, -154.4185
7400.000000, 96.945, -157.5309
7500.000000, 96.428, -159.8142
7620.000000, 95.809, -161.6367
7750.000000, 95.140, -162.5736
7880.000000, 94.487, -162.3712
8000.000000, 93.934, -160.9560
8120.000000, 93.526, -158.2490
8250.000000, 93.382, -154.4969
8380.000000, 93.570, -151.2502
8500.000000, 93.930, -149.5949
8620.000000, 94.344, -149.3425
8750.000000, 94.773, -150.3207
8850.000000, 95.065, -151.7501
9000.000000, 95.419, -154.7878
9120.000000, 95.611, -157.8884
9250.000000, 95.702, -161.7921
9380.000000, 95.642, -166.0721
9500.000000, 95.426, -170.0490
9620.000000, 95.048, -173.5351
9750.000000, 94.540, -176.1121
9880.000000, 94.098, -177.7565
10000.000000, 93.743, -179.4756
10150.000000, 93.209, 178.2407
10300.000000, 92.572, 176.6584
10440.000000, 91.949, 176.0110
10600.000000, 91.256, 176.1425
10750.000000, 90.651, 176.9517
10900.000000, 90.107, 178.2710
11060.000000, 89.601, -179.8907
11200.000000, 89.218, -177.9980
11380.000000, 88.808, -175.2338
11500.000000, 88.588, -173.2223
11720.000000, 88.302, -169.3089
11800.000000, 88.239, -167.8338
12060.000000, 88.191, -162.9535
12200.000000, 88.268, -160.3279
12410.000000, 88.527, -156.5043
12500.000000, 88.694, -154.9479
12650.000000, 89.056, -152.5041
12800.000000, 89.532, -150.3316
13150.000000, 91.145, -147.1994
13200.000000, 91.438, -147.1008
13400.000000, 92.772, -148.0776
13600.000000, 94.310, -152.2071
13800.000000, 95.825, -160.7112
14000.000000, 96.911, -173.8159
14300.000000, 96.943, 162.5704
14500.000000, 95.913, 149.1262
14750.000000, 94.078, 138.1548
15000.000000, 92.306, 132.9080
15250.000000, 90.951, 131.0815
15500.000000, 90.080, 130.6367
15750.000000, 89.680, 130.0154
16000.000000, 89.727, 127.7184
16250.000000, 90.096, 122.0674
16500.000000, 90.437, 111.6875
16750.000000, 90.218, 97.0157
17000.000000, 89.047, 81.1271
17250.000000, 86.986, 67.9280
17500.000000, 84.442, 59.4812
17750.000000, 81.835, 55.5266
18000.000000, 79.415, 54.8090
18250.000000, 77.266, 56.1457
18500.000000, 75.398, 58.7062
18750.000000, 73.788, 62.0374
19000.000000, 72.393, 65.7508
19250.000000, 71.203, 69.6273
19500.000000, 70.246, 73.5163
19750.000000, 69.554, 76.9717
20000.000000, 69.097, 79.2593
20300.000000, 68.709, 79.6835
20600.000000, 68.300, 77.4785
20900.000000, 67.740, 73.2024
21200.000000, 66.903, 67.0717
21400.000000, 66.112, 62.0429
21800.000000, 63.663, 50.7834
22000.000000, 61.810, 45.3653
22400.000000, 56.404, 39.5487
22700.000000, 50.873, 49.0265
23000.000000, 45.021, 79.9754
23300.000000, 40.373, 103.8141
23600.000000, 36.452, 109.2776
24000.000000, 32.170, 108.9057
