* Freq(Hz) SPL(dB)
20.000000 6.836
20.600000 6.849
21.200001 6.899
21.799999 6.931
22.400000 6.945
23.000000 6.989
23.600000 7.026
24.299999 7.034
25.000000 7.035
25.799999 7.044
26.500000 7.085
27.200001 7.125
28.000000 7.134
29.000000 7.134
30.000000 7.134
30.700001 7.134
31.500000 7.135
32.500000 7.138
33.500000 7.164
34.500000 7.218
35.500000 7.233
36.500000 7.234
37.500000 7.234
38.700001 7.234
40.000000 7.234
41.200001 7.234
42.500000 7.234
43.700001 7.234
45.000000 7.234
46.200001 7.234
47.500000 7.231
48.700001 7.210
50.000000 7.160
51.500000 7.136
53.000000 7.127
54.500000 7.088
56.000000 7.039
58.000000 6.974
60.000000 6.895
61.500000 6.820
63.000000 6.739
65.000000 6.647
67.000000 6.569
69.000000 6.472
71.000000 6.372
73.000000 6.259
75.000000 6.134
77.500000 5.980
80.000000 5.836
82.500000 5.689
85.000000 5.513
87.500000 5.315
90.000000 5.121
92.500000 4.931
95.000000 4.742
97.500000 4.539
100.000000 4.313
103.000000 4.067
106.000000 3.805
109.000000 3.543
112.000000 3.268
115.000000 2.996
118.000000 2.729
122.000000 2.383
125.000000 2.131
128.000000 1.883
132.000000 1.562
136.000000 1.256
140.000000 0.980
145.000000 0.680
150.000000 0.390
155.000000 0.128
160.000000 -0.149
165.000000 -0.375
170.000000 -0.582
175.000000 -0.783
180.000000 -0.977
185.000000 -1.154
190.000000 -1.291
195.000000 -1.430
200.000000 -1.554
206.000000 -1.664
212.000000 -1.762
218.000000 -1.845
224.000000 -1.908
230.000000 -1.969
236.000000 -2.027
243.000000 -2.073
250.000000 -2.127
258.000000 -2.161
265.000000 -2.165
272.000000 -2.166
280.000000 -2.166
290.000000 -2.166
300.000000 -2.165
307.000000 -2.164
315.000000 -2.153
325.000000 -2.099
335.000000 -2.069
345.000000 -2.060
355.000000 -2.024
365.000000 -1.976
375.000000 -1.953
387.000000 -1.895
400.000000 -1.845
412.000000 -1.780
425.000000 -1.709
437.000000 -1.647
450.000000 -1.577
462.000000 -1.518
475.000000 -1.454
487.000000 -1.394
500.000000 -1.337
515.000000 -1.267
530.000000 -1.200
545.000000 -1.138
560.000000 -1.080
580.000000 -1.025
600.000000 -0.965
615.000000 -0.924
630.000000 -0.877
650.000000 -0.829
670.000000 -0.777
690.000000 -0.765
710.000000 -0.749
730.000000 -0.698
750.000000 -0.669
775.000000 -0.648
800.000000 -0.589
825.000000 -0.565
850.000000 -0.539
875.000000 -0.484
900.000000 -0.458
925.000000 -0.407
950.000000 -0.327
975.000000 -0.260
1000.000000 -0.191
1030.000000 -0.092
1060.000000 0.007
1090.000000 0.104
1120.000000 0.198
1150.000000 0.289
1180.000000 0.379
1220.000000 0.497
1250.000000 0.599
1280.000000 0.727
1320.000000 0.881
1360.000000 1.060
1400.000000 1.258
1450.000000 1.504
1500.000000 1.773
1550.000000 2.074
1600.000000 2.385
1650.000000 2.703
1700.000000 3.021
1750.000000 3.354
1800.000000 3.686
1850.000000 4.048
1900.000000 4.416
1950.000000 4.775
2000.000000 5.126
2060.000000 5.535
2120.000000 5.933
2180.000000 6.319
2240.000000 6.691
2300.000000 7.033
2360.000000 7.333
2430.000000 7.665
2500.000000 7.945
2580.000000 8.189
2650.000000 8.375
2720.000000 8.550
2800.000000 8.707
2900.000000 8.814
3000.000000 8.854
3070.000000 8.860
3150.000000 8.834
3250.000000 8.773
3350.000000 8.651
3450.000000 8.469
3550.000000 8.272
3650.000000 8.073
3750.000000 7.845
3870.000000 7.558
4000.000000 7.251
4120.000000 6.969
4250.000000 6.661
4370.000000 6.400
4500.000000 6.106
4620.000000 5.836
4750.000000 5.566
4870.000000 5.335
5000.000000 5.093
5150.000000 4.824
5300.000000 4.601
5450.000000 4.399
5600.000000 4.177
5800.000000 3.880
6000.000000 3.626
6150.000000 3.411
6300.000000 3.190
6500.000000 2.884
6700.000000 2.565
6900.000000 2.230
7100.000000 1.904
7300.000000 1.589
7500.000000 1.316
7750.000000 1.014
8000.000000 0.748
8250.000000 0.495
8500.000000 0.196
8750.000000 -0.132
9000.000000 -0.554
9250.000000 -1.049
9500.000000 -1.586
9750.000000 -2.123
10000.000000 -2.649
10300.000000 -3.269
10600.000000 -3.909
10900.000000 -4.590
11200.000000 -5.306
11500.000000 -6.002
11800.000000 -6.636
12200.000000 -7.434
12500.000000 -8.110
12800.000000 -8.943
13200.000000 -10.413
13600.000000 -12.444
14000.000000 -15.059
14500.000000 -18.858
15000.000000 -22.522
15500.000000 -25.364
16000.000000 -27.095
16500.000000 -28.095
17000.000000 -28.965
17500.000000 -30.139
18000.000000 -31.700
18500.000000 -33.512
19000.000000 -35.424
19500.000000 -37.117
