* Freq(Hz) Z(Ohms) Phase(degrees)
20.000000 88.113998 11.3419
20.144928 88.126999 11.2909
20.290907 88.140999 11.2385
20.437943 88.153999 11.1845
20.586044 88.167999 11.1288
20.735220 88.181000 11.0714
20.885475 88.195000 11.0122
21.036821 88.208000 10.9512
21.189262 88.222000 10.8881
21.342808 88.235001 10.8231
21.497467 88.249001 10.7560
21.653246 88.262001 10.6868
21.810154 88.276001 10.6156
21.968201 88.289001 10.5422
22.127390 88.302002 10.4668
22.287735 88.314003 10.3892
22.449242 88.327003 10.3097
22.611917 88.338997 10.2283
22.775772 88.350998 10.1451
22.940815 88.362999 10.0603
23.107054 88.374001 9.9740
23.274498 88.385002 9.8863
23.443153 88.394997 9.7976
23.613033 88.405998 9.7080
23.784142 88.415001 9.6178
23.956491 88.425003 9.5271
24.130091 88.433998 9.4361
24.304947 88.443001 9.3451
24.481071 88.450996 9.2542
24.658470 88.459000 9.1634
24.837156 88.467003 9.0729
25.017136 88.474998 8.9828
25.198421 88.482002 8.8929
25.381020 88.488998 8.8034
25.564941 88.497002 8.7141
25.750195 88.503998 8.6250
25.936790 88.511002 8.5359
26.124741 88.517998 8.4469
26.314051 88.525002 8.3576
26.504732 88.530998 8.2681
26.696796 88.538002 8.1783
26.890253 88.544998 8.0879
27.085112 88.551003 7.9970
27.281382 88.557999 7.9054
27.479073 88.564003 7.8131
27.678198 88.570000 7.7199
27.878765 88.575996 7.6258
28.080786 88.582001 7.5307
28.284271 88.587997 7.4346
28.489231 88.594002 7.3374
28.695675 88.598999 7.2389
28.903616 88.603996 7.1393
29.113064 88.609001 7.0384
29.324028 88.613998 6.9362
29.536524 88.617996 6.8327
29.750557 88.622002 6.7280
29.966141 88.625999 6.6221
30.183289 88.628998 6.5152
30.402010 88.632004 6.4074
30.622314 88.634003 6.2989
30.844217 88.636002 6.1899
31.067726 88.637001 6.0805
31.292856 88.638000 5.9712
31.519617 88.638000 5.8621
31.748020 88.638000 5.7536
31.978081 88.636002 5.6460
32.209808 88.635002 5.5395
32.443211 88.633003 5.4344
32.678310 88.629997 5.3310
32.915108 88.626999 5.2295
33.153625 88.623001 5.1301
33.393871 88.619003 5.0330
33.635857 88.614998 4.9383
33.879597 88.610001 4.8462
34.125103 88.605003 4.7568
34.372387 88.599998 4.6700
34.621464 88.594002 4.5859
34.872345 88.587997 4.5045
35.125042 88.582001 4.4258
35.379574 88.575996 4.3497
35.635948 88.570000 4.2762
35.894180 88.564003 4.2052
36.154285 88.556999 4.1367
36.416275 88.551003 4.0704
36.680161 88.543999 4.0064
36.945961 88.538002 3.9446
37.213688 88.531998 3.8846
37.483353 88.525002 3.8265
37.754974 88.518997 3.7700
38.028561 88.513000 3.7150
38.304131 88.507004 3.6613
38.581699 88.500999 3.6087
38.861279 88.495003 3.5570
39.142883 88.488998 3.5062
39.426529 88.483002 3.4560
39.712231 88.476997 3.4064
40.000000 88.471001 3.3573
40.289856 88.464996 3.3086
40.581814 88.459000 3.2605
40.875885 88.452011 3.2128
41.172089 88.445999 3.1658
41.470440 88.439011 3.1195
41.770950 88.432007 3.0741
42.073643 88.425011 3.0298
42.378525 88.418007 2.9867
42.685616 88.410011 2.9452
42.994934 88.402008 2.9054
43.306492 88.394005 2.8677
43.620308 88.385010 2.8322
43.936401 88.376007 2.7991
44.254780 88.367004 2.7687
44.575470 88.358009 2.7410
44.898483 88.349007 2.7163
45.223835 88.340004 2.6946
45.551544 88.330009 2.6760
45.881630 88.321007 2.6605
46.214108 88.311005 2.6480
46.548996 88.302010 2.6384
46.886307 88.293007 2.6319
47.226067 88.284004 2.6281
47.568283 88.275009 2.6270
47.912983 88.266006 2.6285
48.260181 88.258011 2.6323
48.609894 88.250008 2.6385
48.962143 88.242004 2.6467
49.316940 88.234009 2.6570
49.674313 88.227005 2.6691
50.034271 88.219009 2.6829
50.396843 88.212006 2.6983
50.762039 88.206009 2.7152
51.129883 88.199005 2.7335
51.500389 88.193008 2.7530
51.873581 88.188004 2.7736
52.249481 88.182007 2.7953
52.628101 88.177002 2.8178
53.009464 88.172005 2.8411
53.393593 88.167000 2.8650
53.780506 88.163002 2.8894
54.170223 88.158997 2.9142
54.562763 88.154999 2.9392
54.958145 88.152000 2.9643
55.356396 88.148003 2.9894
55.757530 88.144997 3.0144
56.161572 88.142998 3.0392
56.568542 88.139999 3.0637
56.978462 88.138000 3.0879
57.391350 88.135002 3.1117
57.807232 88.133003 3.1350
58.226128 88.130997 3.1580
58.648056 88.128998 3.1805
59.073048 88.127998 3.2027
59.501114 88.125999 3.2245
59.932281 88.124001 3.2459
60.366577 88.122002 3.2671
60.804020 88.121002 3.2882
61.244629 88.119003 3.3091
61.688435 88.116997 3.3301
62.135452 88.114998 3.3513
62.585712 88.112999 3.3728
63.039234 88.111000 3.3948
63.496040 88.109001 3.4174
63.956161 88.107002 3.4407
64.419617 88.105003 3.4651
64.886421 88.102997 3.4905
65.356621 88.100998 3.5173
65.830215 88.098999 3.5455
66.307251 88.096001 3.5753
66.787743 88.094002 3.6068
67.271713 88.092003 3.6400
67.759193 88.089996 3.6751
68.250206 88.087997 3.7121
68.744774 88.085999 3.7508
69.242928 88.084999 3.7912
69.744690 88.084000 3.8332
70.250084 88.083000 3.8765
70.759148 88.083000 3.9211
71.271896 88.083000 3.9666
71.788361 88.083000 4.0129
72.308571 88.084000 4.0596
72.832550 88.084999 4.1066
73.360321 88.086998 4.1535
73.891922 88.088997 4.2003
74.427376 88.092003 4.2466
74.966705 88.095001 4.2923
75.509949 88.098000 4.3375
76.057121 88.100998 4.3819
76.608261 88.104996 4.4254
77.163399 88.108994 4.4679
77.722557 88.113991 4.5095
78.285767 88.117989 4.5501
78.853058 88.122993 4.5896
79.424461 88.127991 4.6281
80.000000 88.133995 4.6653
80.579712 88.138992 4.7013
81.163628 88.144989 4.7359
81.751770 88.150993 4.7692
82.344177 88.157990 4.8009
82.940880 88.163994 4.8310
83.541901 88.170990 4.8594
84.147285 88.177994 4.8859
84.757050 88.185989 4.9106
85.371231 88.192993 4.9332
85.989868 88.200989 4.9538
86.612984 88.207993 4.9722
87.240616 88.215996 4.9884
87.872803 88.223991 5.0023
88.509560 88.231995 5.0139
89.150940 88.239990 5.0232
89.796967 88.248993 5.0300
90.447670 88.256996 5.0343
91.103088 88.264992 5.0361
91.763260 88.272995 5.0353
92.428215 88.280991 5.0318
93.097992 88.288994 5.0257
93.772614 88.296989 5.0169
94.452133 88.304993 5.0055
95.136566 88.312996 4.9913
95.825966 88.319992 4.9747
96.520363 88.326996 4.9555
97.219788 88.333992 4.9339
97.924286 88.340996 4.9102
98.633881 88.346992 4.8845
99.348625 88.352989 4.8570
100.068542 88.357994 4.8280
100.793686 88.362991 4.7977
101.524078 88.366989 4.7663
102.259766 88.370995 4.7342
103.000778 88.374992 4.7015
103.747162 88.377998 4.6685
104.498962 88.380997 4.6354
105.256203 88.383003 4.6025
106.018929 88.385002 4.5698
106.787186 88.387001 4.5376
107.561012 88.388000 4.5060
108.340446 88.389000 4.4750
109.125526 88.389999 4.4448
109.916290 88.389999 4.4155
110.712791 88.390999 4.3871
111.515060 88.390999 4.3595
112.323143 88.389999 4.3329
113.137085 88.389999 4.3073
113.956924 88.389999 4.2825
114.782700 88.389000 4.2587
115.614464 88.388000 4.2358
116.452255 88.387001 4.2138
117.296112 88.386002 4.1925
118.146095 88.385002 4.1721
119.002228 88.384003 4.1524
119.864563 88.383003 4.1335
120.733154 88.382004 4.1152
121.608040 88.380997 4.0975
122.489258 88.378998 4.0804
123.376869 88.377998 4.0638
124.270905 88.375999 4.0477
125.171425 88.375000 4.0320
126.078468 88.373001 4.0167
126.992081 88.372002 4.0017
127.912323 88.370003 3.9871
128.839233 88.367996 3.9727
129.772842 88.366997 3.9584
130.713242 88.364998 3.9443
131.660431 88.362999 3.9304
132.614502 88.361000 3.9164
133.575485 88.359001 3.9025
134.543427 88.357002 3.8885
135.518387 88.356003 3.8745
136.500412 88.353996 3.8603
137.489548 88.351997 3.8459
138.485855 88.349007 3.8312
139.489380 88.347000 3.8163
140.500168 88.345001 3.8010
141.518295 88.343002 3.7854
142.543793 88.340004 3.7693
143.576721 88.337997 3.7528
144.617142 88.335007 3.7358
145.665100 88.333000 3.7182
146.720642 88.330009 3.7002
147.783844 88.327011 3.6815
148.854752 88.323006 3.6623
149.933411 88.320007 3.6426
151.019897 88.316010 3.6223
152.114243 88.313011 3.6015
153.216522 88.308006 3.5804
154.326797 88.304008 3.5590
155.445114 88.299011 3.5373
156.571533 88.294006 3.5156
157.706116 88.289009 3.4941
158.848923 88.283005 3.4728
160.000000 88.277008 3.4521
161.159424 88.270012 3.4322
162.327255 88.263016 3.4135
163.503540 88.255013 3.3961
164.688354 88.247017 3.3805
165.881760 88.238014 3.3669
167.083801 88.229012 3.3558
168.294571 88.220016 3.3474
169.514099 88.210014 3.3421
170.742462 88.199013 3.3402
171.979736 88.189018 3.3419
173.225967 88.178024 3.3474
174.481232 88.167023 3.3570
175.745605 88.155022 3.3708
177.019119 88.144012 3.3888
178.301880 88.133018 3.4110
179.593933 88.122017 3.4376
180.895340 88.111015 3.4683
182.206177 88.100014 3.5032
183.526520 88.089012 3.5422
184.856430 88.078018 3.5851
186.195984 88.068016 3.6318
187.545227 88.059013 3.6821
188.904266 88.049019 3.7359
190.273132 88.040016 3.7930
191.651932 88.031013 3.8532
193.040726 88.023018 3.9164
194.439575 88.015015 3.9824
195.848572 88.008018 4.0511
197.267761 88.001015 4.1223
198.697250 87.995010 4.1961
200.137085 87.989006 4.2722
201.587372 87.984009 4.3507
203.048157 87.979004 4.4315
204.519531 87.974007 4.5146
206.001556 87.970009 4.6002
207.494324 87.966011 4.6883
208.997925 87.962006 4.7790
210.512405 87.959007 4.8724
212.037857 87.956009 4.9686
213.574371 87.954002 5.0678
215.122025 87.952003 5.1700
216.680893 87.949997 5.2754
218.251053 87.948997 5.3839
219.832581 87.947998 5.4956
221.425583 87.946999 5.6104
223.030121 87.946999 5.7281
224.646286 87.946999 5.8486
226.274170 87.947998 5.9714
227.913849 87.949989 6.0964
229.565399 87.951996 6.2229
231.228928 87.954994 6.3507
232.904510 87.957993 6.4792
234.592224 87.961990 6.6078
236.292191 87.966995 6.7362
238.004456 87.972984 6.8639
239.729126 87.978981 6.9903
241.466309 87.984985 7.1152
243.216080 87.992981 7.2382
244.978516 88.000984 7.3590
246.753738 88.009987 7.4773
248.541809 88.018982 7.5931
250.342850 88.028976 7.7061
252.156937 88.038979 7.8162
253.984161 88.049980 7.9233
255.824646 88.060974 8.0274
257.678467 88.072975 8.1283
259.545685 88.084976 8.2261
261.426483 88.097977 8.3207
263.320862 88.110970 8.4121
265.229004 88.124969 8.5002
267.150970 88.138969 8.5850
269.086853 88.152969 8.6665
271.036774 88.167969 8.7446
273.000824 88.182968 8.8195
274.979095 88.197968 8.8909
276.971710 88.212967 8.9590
278.978760 88.227966 9.0238
281.000336 88.243973 9.0853
283.036591 88.258972 9.1437
285.087585 88.274971 9.1990
287.153442 88.290970 9.2514
289.234283 88.305969 9.3011
291.330200 88.320969 9.3481
293.441284 88.336967 9.3926
295.567688 88.351967 9.4348
297.709503 88.366966 9.4749
299.866821 88.381973 9.5129
302.039795 88.396973 9.5490
304.228485 88.410973 9.5833
306.433044 88.425972 9.6159
308.653595 88.439972 9.6470
310.890228 88.454971 9.6765
313.143066 88.468971 9.7046
315.412231 88.482971 9.7314
317.697845 88.496971 9.7569
320.000000 88.509972 9.7813
322.318848 88.523972 9.8047
324.654510 88.536972 9.8271
327.007080 88.549973 9.8488
329.376709 88.562973 9.8697
331.763519 88.574974 9.8901
334.167603 88.587967 9.9101
336.589142 88.599976 9.9298
339.028198 88.611977 9.9494
341.484924 88.623978 9.9689
343.959473 88.634979 9.9885
346.451935 88.646980 10.0082
348.962463 88.657974 10.0283
351.491211 88.668976 10.0486
354.038239 88.680977 10.0694
356.603760 88.691978 10.0907
359.187866 88.701981 10.1126
361.790680 88.712975 10.1350
364.412354 88.723976 10.1583
367.053040 88.733978 10.1824
369.712860 88.744980 10.2074
372.391968 88.754974 10.2334
375.090454 88.765976 10.2605
377.808533 88.775978 10.2887
380.546265 88.785980 10.3180
383.303864 88.795975 10.3487
386.081451 88.805977 10.3805
388.879150 88.816978 10.4136
391.697144 88.826981 10.4479
394.535522 88.836975 10.4833
397.394501 88.846977 10.5198
400.274170 88.857979 10.5572
403.174744 88.867973 10.5956
406.096313 88.877975 10.6346
409.039062 88.888977 10.6744
412.003113 88.898979 10.7146
414.988647 88.908974 10.7552
417.995850 88.919975 10.7960
421.024811 88.929977 10.8371
424.075714 88.939980 10.8782
427.148743 88.949974 10.9192
430.244049 88.960976 10.9602
433.361786 88.970978 11.0010
436.502106 88.980980 11.0416
439.665161 88.989975 11.0818
442.851166 88.999977 11.1217
446.060242 89.009979 11.1612
449.292572 89.018974 11.2002
452.548340 89.028976 11.2388
455.827698 89.037979 11.2769
459.130798 89.047974 11.3145
462.457855 89.056976 11.3516
465.809021 89.065979 11.3881
469.184448 89.074974 11.4241
472.584381 89.083977 11.4596
476.008911 89.092979 11.4946
479.458252 89.101974 11.5290
482.932617 89.110977 11.5630
486.432159 89.119980 11.5966
489.957031 89.128975 11.6297
493.507477 89.137978 11.6624
497.083618 89.145981 11.6947
500.685699 89.154976 11.7267
504.313873 89.163979 11.7583
507.968323 89.172974 11.7897
511.649292 89.181976 11.8207
515.356934 89.191978 11.8515
519.091370 89.200974 11.8820
522.852966 89.209976 11.9122
526.641724 89.218979 11.9422
530.458008 89.228973 11.9719
534.301941 89.237976 12.0014
538.173706 89.247978 12.0305
542.073547 89.256981 12.0594
546.001648 89.266975 12.0879
549.958191 89.276978 12.1161
553.943420 89.285980 12.1439
557.957520 89.295975 12.1713
562.000671 89.305977 12.1982
566.073181 89.315979 12.2247
570.175171 89.325974 12.2507
574.306885 89.335968 12.2763
578.468567 89.346970 12.3013
582.660400 89.356979 12.3258
586.882568 89.366974 12.3499
591.135376 89.376976 12.3735
595.419006 89.386978 12.3967
599.733643 89.396980 12.4195
604.079590 89.406975 12.4421
608.456970 89.415977 12.4644
612.866089 89.425972 12.4866
617.307190 89.435974 12.5087
621.780457 89.444977 12.5308
626.286133 89.454979 12.5530
630.824463 89.463974 12.5753
635.395691 89.472977 12.5979
640.000000 89.482979 12.6207
644.637695 89.491974 12.6439
649.309021 89.500977 12.6675
654.014160 89.509979 12.6915
658.753418 89.518974 12.7160
663.527039 89.526978 12.7410
668.335205 89.535980 12.7667
673.178284 89.544975 12.7929
678.056396 89.552979 12.8198
682.969849 89.561974 12.8473
687.918945 89.569977 12.8756
692.903870 89.578979 12.9047
697.924927 89.586975 12.9345
702.982422 89.595978 12.9651
708.076477 89.603973 12.9965
713.207520 89.611977 13.0287
718.375732 89.620979 13.0617
723.581360 89.628975 13.0955
728.824707 89.636978 13.1301
734.106079 89.644974 13.1655
739.425720 89.653976 13.2016
744.783936 89.661980 13.2386
750.180908 89.669975 13.2764
755.617065 89.677979 13.3151
761.092529 89.685974 13.3546
766.607727 89.694977 13.3950
772.162903 89.702980 13.4365
777.758301 89.710976 13.4789
783.394287 89.718979 13.5223
789.071045 89.726974 13.5669
794.789001 89.734978 13.6126
800.548340 89.741974 13.6595
806.349487 89.749977 13.7078
812.192627 89.757980 13.7574
818.078125 89.765976 13.8085
824.006226 89.772980 13.8612
829.977295 89.780975 13.9156
835.991699 89.788979 13.9718
842.049622 89.795975 14.0298
848.151428 89.803978 14.0899
854.297485 89.810974 14.1520
860.488098 89.818977 14.2163
866.723572 89.826981 14.2828
873.004211 89.833977 14.3515
879.330322 89.841980 14.4225
885.702332 89.849976 14.4959
892.120483 89.857979 14.5716
898.585144 89.865974 14.6498
905.096680 89.873978 14.7303
911.655396 89.881981 14.8134
918.261597 89.890976 14.8989
924.915710 89.898979 14.9872
931.618042 89.907967 15.0782
938.368896 89.916969 15.1719
945.168762 89.925972 15.2686
952.017822 89.934967 15.3682
958.916504 89.944969 15.4710
965.865234 89.953972 15.5770
972.864319 89.963966 15.6864
979.914062 89.973969 15.7993
987.014954 89.984970 15.9158
994.167236 89.995972 16.0360
1001.371399 90.006973 16.1602
1008.627747 90.017960 16.2883
1015.936646 90.030960 16.4205
1023.298584 90.042961 16.5569
1030.713867 90.055962 16.6974
1038.182739 90.069954 16.8421
1045.705933 90.084953 16.9910
1053.283447 90.099953 17.1441
1060.916016 90.115944 17.3012
1068.603882 90.132950 17.4620
1076.347412 90.150940 17.6265
1084.147095 90.169937 17.7943
1092.003296 90.190933 17.9650
1099.916382 90.211929 18.1383
1107.886841 90.234924 18.3138
1115.915039 90.258926 18.4909
1124.001343 90.283913 18.6695
1132.146362 90.310913 18.8488
1140.350342 90.338905 19.0284
1148.613770 90.367905 19.2079
1156.937134 90.398903 19.3868
1165.320801 90.430901 19.5647
1173.765137 90.463890 19.7410
1182.270752 90.497894 19.9155
1190.838013 90.533882 20.0878
1199.467285 90.569885 20.2577
1208.159180 90.607880 20.4248
1216.913940 90.646881 20.5889
1225.732178 90.686867 20.7498
1234.614380 90.727867 20.9074
1243.560913 90.769859 21.0616
1252.572266 90.812866 21.2122
1261.648926 90.855858 21.3591
1270.791382 90.900856 21.5022
1280.000000 90.945854 21.6416
1289.275391 90.992844 21.7770
1298.618042 91.039848 21.9084
1308.028320 91.087837 22.0357
1317.506836 91.136841 22.1588
1327.054077 91.185837 22.2777
1336.670410 91.236832 22.3922
1346.356567 91.287834 22.5024
1356.112793 91.339828 22.6080
1365.939697 91.392822 22.7089
1375.837891 91.445824 22.8052
1385.807739 91.499825 22.8967
1395.849854 91.554825 22.9833
1405.964844 91.609818 23.0650
1416.152954 91.666817 23.1419
1426.415039 91.722816 23.2138
1436.751465 91.780807 23.2807
1447.162720 91.838806 23.3426
1457.649414 91.896812 23.3997
1468.212158 91.955803 23.4518
1478.851440 92.015800 23.4992
1489.567871 92.075798 23.5418
1500.361816 92.136803 23.5796
1511.234131 92.197792 23.6126
1522.185059 92.259789 23.6411
1533.215454 92.322784 23.6648
1544.325806 92.385788 23.6839
1555.516602 92.449783 23.6983
1566.788574 92.513779 23.7079
1578.142090 92.579781 23.7126
1589.578003 92.645782 23.7123
1601.096680 92.712769 23.7068
1612.698975 92.780769 23.6958
1624.385254 92.848770 23.6792
1636.156250 92.918762 23.6565
1648.012451 92.988762 23.6275
1659.954590 93.059753 23.5918
1671.983398 93.131760 23.5491
1684.099243 93.203758 23.4990
1696.302856 93.277748 23.4411
1708.594971 93.351746 23.3751
1720.976196 93.426743 23.3007
1733.447144 93.501740 23.2175
1746.008423 93.577744 23.1254
1758.660645 93.653740 23.0241
1771.404663 93.730736 22.9133
1784.240967 93.808731 22.7930
1797.170288 93.885735 22.6630
1810.193359 93.963730 22.5232
1823.310791 94.042732 22.3734
1836.523193 94.120735 22.2136
1849.831421 94.199722 22.0437
1863.236084 94.278725 21.8635
1876.737793 94.357727 21.6730
1890.337524 94.437721 21.4720
1904.035645 94.516724 21.2605
1917.833008 94.596718 21.0382
1931.730469 94.675728 20.8050
1945.728638 94.755714 20.5609
1959.828125 94.835716 20.3056
1974.029907 94.914726 20.0392
1988.334473 94.994720 19.7614
2002.742798 95.073723 19.4720
2017.255493 95.152718 19.1713
2031.873291 95.230721 18.8587
2046.597168 95.309715 18.5346
2061.427734 95.386726 18.1987
2076.365479 95.464722 17.8511
2091.411865 95.541725 17.4916
2106.566895 95.617729 17.1204
2121.832031 95.693733 16.7374
2137.207764 95.768730 16.3427
2152.694824 95.843735 15.9364
2168.294189 95.916740 15.5185
2184.006592 95.989731 15.0893
2199.832764 96.061745 14.6486
2215.773682 96.132751 14.1968
2231.830078 96.201752 13.7340
2248.002686 96.270752 13.2604
2264.292725 96.338753 12.7763
2280.700684 96.405754 12.2818
2297.227539 96.470764 11.7773
2313.874268 96.535767 11.2629
2330.641602 96.598770 10.7390
2347.530273 96.659782 10.2060
2364.541504 96.720779 9.6640
2381.676025 96.779785 9.1135
2398.934570 96.837784 8.5546
2416.318359 96.894791 7.9878
2433.827881 96.949799 7.4134
2451.464355 97.003799 6.8319
2469.228760 97.055809 6.2433
2487.121826 97.106819 5.6482
2505.144531 97.156815 5.0469
2523.297852 97.204826 4.4398
2541.582764 97.251823 3.8270
2560.000000 97.297829 3.2090
2578.550781 97.341843 2.5860
2597.236084 97.384842 1.9583
2616.056641 97.426849 1.3262
2635.013672 97.466858 0.6899
2654.108154 97.505852 0.0496
2673.340820 97.543854 -0.5946
2692.713135 97.580864 -1.2424
2712.225586 97.616867 -1.8937
2731.879395 97.650871 -2.5486
2751.675781 97.684868 -3.2068
2771.615479 97.716881 -3.8683
2791.699707 97.748878 -4.5329
2811.929688 97.778885 -5.2010
2832.305908 97.807892 -5.8724
2852.830078 97.835892 -6.5471
2873.502930 97.863892 -7.2253
2894.325439 97.889900 -7.9070
2915.298828 97.915901 -8.5924
2936.424316 97.939911 -9.2814
2957.702881 97.963905 -9.9745
2979.135742 97.985916 -10.6715
3000.723633 98.007919 -11.3728
3022.468262 98.027924 -12.0783
3044.370117 98.047920 -12.7883
3066.430908 98.065933 -13.5027
3088.651611 98.082939 -14.2215
3111.033203 98.098938 -14.9449
3133.577148 98.113945 -15.6728
3156.284180 98.127945 -16.4050
3179.156006 98.139954 -17.1414
3202.193359 98.149963 -17.8819
3225.397949 98.159966 -18.6262
3248.770508 98.167969 -19.3742
3272.312500 98.173981 -20.1255
3296.024902 98.178986 -20.8799
3319.909180 98.182991 -21.6372
3343.966797 98.183998 -22.3969
3368.198486 98.184998 -23.1588
3392.605713 98.183006 -23.9227
3417.189941 98.181015 -24.6881
3441.952393 98.176025 -25.4548
3466.894287 98.170021 -26.2224
3492.016846 98.163033 -26.9908
3517.321289 98.154037 -27.7594
3542.809326 98.143044 -28.5284
3568.481934 98.131050 -29.2972
3594.340576 98.117058 -30.0657
3620.386719 98.102058 -30.8336
3646.621582 98.086067 -31.6007
3673.046387 98.067078 -32.3667
3699.662842 98.048080 -33.1315
3726.472168 98.027092 -33.8948
3753.475586 98.004097 -34.6565
3780.675049 97.980103 -35.4163
3808.071289 97.955109 -36.1742
3835.666016 97.928116 -36.9298
3863.460938 97.900116 -37.6832
3891.457275 97.871124 -38.4340
3919.656250 97.840126 -39.1821
3948.059814 97.808128 -39.9275
3976.668945 97.775139 -40.6698
4005.485596 97.740143 -41.4091
4034.510986 97.704155 -42.1451
4063.746582 97.667152 -42.8777
4093.194336 97.628159 -43.6069
4122.855469 97.589157 -44.3324
4152.730957 97.548164 -45.0543
4182.823730 97.506172 -45.7724
4213.133789 97.463181 -46.4864
4243.664062 97.418182 -47.1964
4274.415527 97.373192 -47.9021
4305.389648 97.326195 -48.6033
4336.588379 97.278198 -49.3002
4368.013184 97.230202 -49.9921
4399.665527 97.180206 -50.6791
4431.547363 97.129211 -51.3610
4463.660156 97.076218 -52.0377
4496.005371 97.023224 -52.7089
4528.585449 96.969223 -53.3744
4561.401367 96.914230 -54.0341
4594.455078 96.858231 -54.6879
4627.748535 96.801239 -55.3358
4661.283203 96.743233 -55.9775
4695.060547 96.685234 -56.6130
4729.083008 96.625244 -57.2424
4763.352051 96.565254 -57.8657
4797.869141 96.505257 -58.4828
4832.636719 96.443260 -59.0938
4867.655762 96.382263 -59.6990
4902.928711 96.320267 -60.2983
4938.457520 96.257271 -60.8919
4974.243652 96.194267 -61.4798
5010.289062 96.131264 -62.0625
5046.595703 96.067276 -62.6400
5083.165527 96.003265 -63.2124
5120.000000 95.939270 -63.7800
5157.101562 95.875275 -64.3431
5194.472168 95.810272 -64.9019
5232.113281 95.746277 -65.4566
5270.027344 95.681274 -66.0074
5308.216309 95.616272 -66.5545
5346.681641 95.551285 -67.0981
5385.426270 95.486275 -67.6388
5424.451172 95.421272 -68.1764
5463.758789 95.356285 -68.7114
5503.351562 95.291283 -69.2439
5543.230957 95.226280 -69.7742
5583.399414 95.161285 -70.3026
5623.859375 95.096283 -70.8292
5664.611816 95.031281 -71.3544
5705.660156 94.966286 -71.8782
5747.005859 94.900291 -72.4010
5788.650879 94.835281 -72.9229
5830.597656 94.770279 -73.4441
5872.848633 94.705284 -73.9648
5915.405762 94.639290 -74.4851
5958.271484 94.574280 -75.0052
6001.447266 94.508293 -75.5252
6044.936523 94.442291 -76.0452
6088.740234 94.376289 -76.5654
6132.861816 94.310287 -77.0859
6177.303223 94.243286 -77.6068
6222.066406 94.177292 -78.1281
6267.154297 94.110291 -78.6500
6312.568359 94.043289 -79.1725
6358.312012 93.975296 -79.6957
6404.386719 93.907295 -80.2197
6450.795898 93.839294 -80.7445
6497.541016 93.771309 -81.2701
6544.625000 93.702316 -81.7965
6592.049805 93.632317 -82.3238
6639.818359 93.562309 -82.8518
6687.933594 93.492310 -83.3805
6736.396973 93.421318 -83.9096
6785.211426 93.349319 -84.4392
6834.379883 93.277328 -84.9690
6883.904785 93.203339 -85.4987
6933.788574 93.129333 -86.0282
6984.033691 93.055336 -86.5571
7034.642578 92.979340 -87.0852
7085.618652 92.903343 -87.6123
7136.963867 92.825348 -88.1379
7188.681152 92.747353 -88.6618
7240.773438 92.668358 -89.1839
7293.243164 92.588356 -89.7036
7346.092773 92.507370 -90.0000
7399.325684 92.426369 -90.0000
7452.944336 92.343376 -90.0000
7506.951172 92.260376 -90.0000
7561.350098 92.176384 -90.0000
7616.142578 92.091385 -90.0000
7671.332031 92.005386 -90.0000
7726.921875 91.919388 -90.0000
7782.914551 91.832405 -90.0000
7839.312500 91.744408 -90.0000
7896.119629 91.656410 -90.0000
7953.337891 91.567413 -90.0000
8010.971191 91.477409 -90.0000
8069.021973 91.388412 -90.0000
8127.493164 91.297417 -90.0000
8186.388672 91.207420 -90.0000
8245.710938 91.115425 -90.0000
8305.461914 91.024429 -90.0000
8365.647461 90.932426 -90.0000
8426.267578 90.840431 -90.0000
8487.328125 90.747429 -90.0000
8548.831055 90.655426 -90.0000
8610.779297 90.562431 -90.0000
8673.176758 90.468437 -90.0000
8736.026367 90.375427 -90.0000
8799.331055 90.281433 -90.0000
8863.094727 90.187431 -90.0000
8927.320312 90.092453 -90.0000
8992.010742 89.998451 -90.0000
9057.170898 89.903458 -90.0000
9122.802734 89.807457 -90.0000
9188.910156 89.712456 -90.0000
9255.497070 89.615456 -90.0000
9322.566406 89.519455 -90.0000
9390.121094 89.422462 -90.0000
9458.166016 89.324463 -90.0000
9526.704102 89.226463 -90.0000
9595.738281 89.127472 -90.0000
9665.273438 89.028473 -90.0000
9735.311523 88.928482 -90.0000
9805.857422 88.827484 -90.0000
9876.915039 88.726479 -90.0000
9948.487305 88.625481 -90.0000
10020.578125 88.522491 -90.0000
10093.191406 88.419487 -90.0000
10166.331055 88.316490 -90.0000
10240.000000 88.212494 -90.0000
10314.203125 88.107506 -90.0000
10388.944336 88.002502 -90.0000
10464.226562 87.896507 -90.0000
10540.054688 87.791504 -90.0000
10616.432617 87.684509 -90.0000
10693.363281 87.578506 -90.0000
10770.852539 87.471512 -90.0000
10848.902344 87.363510 -90.0000
10927.517578 87.256508 -90.0000
11006.703125 87.148514 -90.0000
11086.461914 87.040512 -90.0000
11166.798828 86.932510 -90.0000
11247.718750 86.824509 -90.0000
11329.223633 86.716515 -90.0000
11411.320312 86.608521 -90.0000
11494.011719 86.499519 -90.0000
11577.301758 86.391510 -90.0000
11661.195312 86.282516 -90.0000
11745.697266 86.174515 -90.0000
11830.811523 86.065521 -90.0000
11916.542969 85.957512 -90.0000
12002.894531 85.848534 -90.0000
12089.873047 85.740524 -90.0000
12177.480469 85.631546 -90.0000
12265.723633 85.522552 -90.0000
12354.606445 85.413551 -90.0000
12444.132812 85.304550 -90.0000
12534.308594 85.195549 -90.0000
12625.136719 85.086548 -90.0000
12716.624023 84.977547 -90.0000
12808.773438 84.868546 -90.0000
12901.591797 84.759552 -90.0000
12995.082031 84.650551 -90.0000
13089.250000 84.540550 -90.0000
13184.099609 84.431549 -90.0000
13279.636719 84.322548 -90.0000
13375.867188 84.212547 -90.0000
13472.793945 84.103546 -90.0000
13570.422852 83.994553 -90.0000
13668.759766 83.885551 -90.0000
13767.809570 83.776550 -90.0000
13867.577148 83.667549 -90.0000
13968.067383 83.558548 -90.0000
14069.285156 83.449547 -90.0000
14171.237305 83.340546 -90.0000
14273.927734 83.231552 -90.0000
14377.362305 83.122551 -90.0000
14481.546875 83.013550 -90.0000
14586.486328 82.904549 -90.0000
14692.185547 82.795547 -90.0000
14798.651367 82.686539 -90.0000
14905.888672 82.578545 -90.0000
15013.902344 82.469551 -90.0000
15122.700195 82.360542 -90.0000
15232.285156 82.252541 -90.0000
15342.664062 82.143547 -90.0000
15453.843750 82.035545 -90.0000
15565.829102 81.926552 -90.0000
15678.625000 81.818542 -90.0000
15792.239258 81.710541 -90.0000
15906.675781 81.602539 -90.0000
16021.942383 81.494545 -90.0000
16138.043945 81.386543 -90.0000
16254.986328 81.279533 -90.0000
16372.777344 81.171539 -90.0000
16491.421875 81.064537 -90.0000
16610.923828 80.956566 -90.0000
16731.294922 80.849548 -90.0000
16852.535156 80.742554 -90.0000
16974.656250 80.636551 -90.0000
17097.662109 80.529549 -90.0000
17221.558594 80.423538 -90.0000
17346.353516 80.317551 -90.0000
17472.052734 80.211540 -90.0000
17598.662109 80.106544 -90.0000
17726.189453 80.001541 -90.0000
17854.640625 79.897537 -90.0000
17984.021484 79.794525 -90.0000
18114.341797 79.691544 -90.0000
18245.605469 79.589523 -90.0000
18377.820312 79.488518 -90.0000
18510.994141 79.387520 -90.0000
18645.132812 79.288521 -90.0000
18780.242188 79.189529 -90.0000
18916.332031 79.090515 -90.0000
19053.408203 78.993507 -90.0000
19191.476562 78.896515 -90.0000
19330.546875 78.800507 -90.0000
19470.623047 78.704506 -90.0000
19611.714844 78.608505 -90.0000
19753.830078 78.513504 -90.0000
19896.974609 78.417511 -90.0000
